subj,session,trial,rt,object_response,category,condition,imagename
vgg16,1,1,0,chair,airplane,1,../stimuli/style-transfer-preprocessed-512/airplane/airplane1-bicycle2.png
vgg16,1,2,0,chair,airplane,2,../stimuli/style-transfer-preprocessed-512/airplane/airplane1-chair2.png
vgg16,1,3,0,clock,airplane,3,../stimuli/style-transfer-preprocessed-512/airplane/airplane1-clock1.png
vgg16,1,4,0,elephant,airplane,4,../stimuli/style-transfer-preprocessed-512/airplane/airplane1-elephant1.png
vgg16,1,5,0,airplane,airplane,5,../stimuli/style-transfer-preprocessed-512/airplane/airplane10-airplane1.png
vgg16,1,6,0,bear,airplane,6,../stimuli/style-transfer-preprocessed-512/airplane/airplane10-bear3.png
vgg16,1,7,0,truck,airplane,7,../stimuli/style-transfer-preprocessed-512/airplane/airplane10-boat3.png
vgg16,1,8,0,car,airplane,8,../stimuli/style-transfer-preprocessed-512/airplane/airplane10-car3.png
vgg16,1,9,0,cat,airplane,9,../stimuli/style-transfer-preprocessed-512/airplane/airplane10-cat2.png
vgg16,1,10,0,dog,airplane,10,../stimuli/style-transfer-preprocessed-512/airplane/airplane10-dog3.png
vgg16,1,11,0,elephant,airplane,11,../stimuli/style-transfer-preprocessed-512/airplane/airplane10-elephant1.png
vgg16,1,12,0,knife,airplane,12,../stimuli/style-transfer-preprocessed-512/airplane/airplane10-knife3.png
vgg16,1,13,0,oven,airplane,13,../stimuli/style-transfer-preprocessed-512/airplane/airplane10-oven2.png
vgg16,1,14,0,car,airplane,14,../stimuli/style-transfer-preprocessed-512/airplane/airplane10-truck1.png
vgg16,1,15,0,bear,airplane,15,../stimuli/style-transfer-preprocessed-512/airplane/airplane2-bear1.png
vgg16,1,16,0,bicycle,airplane,16,../stimuli/style-transfer-preprocessed-512/airplane/airplane2-bicycle1.png
vgg16,1,17,0,airplane,airplane,17,../stimuli/style-transfer-preprocessed-512/airplane/airplane2-bird3.png
vgg16,1,18,0,bottle,airplane,18,../stimuli/style-transfer-preprocessed-512/airplane/airplane2-bottle1.png
vgg16,1,19,0,cat,airplane,19,../stimuli/style-transfer-preprocessed-512/airplane/airplane2-cat1.png
vgg16,1,20,0,cat,airplane,20,../stimuli/style-transfer-preprocessed-512/airplane/airplane2-dog1.png
vgg16,1,21,0,car,airplane,21,../stimuli/style-transfer-preprocessed-512/airplane/airplane3-airplane2.png
vgg16,1,22,0,car,airplane,22,../stimuli/style-transfer-preprocessed-512/airplane/airplane3-car1.png
vgg16,1,23,0,cat,airplane,23,../stimuli/style-transfer-preprocessed-512/airplane/airplane3-cat1.png
vgg16,1,24,0,airplane,airplane,24,../stimuli/style-transfer-preprocessed-512/airplane/airplane3-chair3.png
vgg16,1,25,0,clock,airplane,25,../stimuli/style-transfer-preprocessed-512/airplane/airplane3-clock1.png
vgg16,1,26,0,dog,airplane,26,../stimuli/style-transfer-preprocessed-512/airplane/airplane3-dog1.png
vgg16,1,27,0,elephant,airplane,27,../stimuli/style-transfer-preprocessed-512/airplane/airplane3-elephant1.png
vgg16,1,28,0,car,airplane,28,../stimuli/style-transfer-preprocessed-512/airplane/airplane3-keyboard2.png
vgg16,1,29,0,car,airplane,29,../stimuli/style-transfer-preprocessed-512/airplane/airplane3-oven1.png
vgg16,1,30,0,airplane,airplane,30,../stimuli/style-transfer-preprocessed-512/airplane/airplane4-airplane1.png
vgg16,1,31,0,bear,airplane,31,../stimuli/style-transfer-preprocessed-512/airplane/airplane4-bear3.png
vgg16,1,32,0,chair,airplane,32,../stimuli/style-transfer-preprocessed-512/airplane/airplane4-bicycle2.png
vgg16,1,33,0,bird,airplane,33,../stimuli/style-transfer-preprocessed-512/airplane/airplane4-bird3.png
vgg16,1,34,0,truck,airplane,34,../stimuli/style-transfer-preprocessed-512/airplane/airplane4-boat3.png
vgg16,1,35,0,bottle,airplane,35,../stimuli/style-transfer-preprocessed-512/airplane/airplane4-bottle1.png
vgg16,1,36,0,car,airplane,36,../stimuli/style-transfer-preprocessed-512/airplane/airplane4-car1.png
vgg16,1,37,0,cat,airplane,37,../stimuli/style-transfer-preprocessed-512/airplane/airplane4-cat3.png
vgg16,1,38,0,dog,airplane,38,../stimuli/style-transfer-preprocessed-512/airplane/airplane4-dog2.png
vgg16,1,39,0,elephant,airplane,39,../stimuli/style-transfer-preprocessed-512/airplane/airplane4-elephant1.png
vgg16,1,40,0,bottle,airplane,40,../stimuli/style-transfer-preprocessed-512/airplane/airplane4-keyboard3.png
vgg16,1,41,0,car,airplane,41,../stimuli/style-transfer-preprocessed-512/airplane/airplane4-knife1.png
vgg16,1,42,0,car,airplane,42,../stimuli/style-transfer-preprocessed-512/airplane/airplane4-truck2.png
vgg16,1,43,0,bear,airplane,43,../stimuli/style-transfer-preprocessed-512/airplane/airplane5-bear2.png
vgg16,1,44,0,bicycle,airplane,44,../stimuli/style-transfer-preprocessed-512/airplane/airplane5-bicycle1.png
vgg16,1,45,0,bird,airplane,45,../stimuli/style-transfer-preprocessed-512/airplane/airplane5-bird2.png
vgg16,1,46,0,airplane,airplane,46,../stimuli/style-transfer-preprocessed-512/airplane/airplane5-boat3.png
vgg16,1,47,0,bottle,airplane,47,../stimuli/style-transfer-preprocessed-512/airplane/airplane5-bottle3.png
vgg16,1,48,0,chair,airplane,48,../stimuli/style-transfer-preprocessed-512/airplane/airplane5-chair3.png
vgg16,1,49,0,dog,airplane,49,../stimuli/style-transfer-preprocessed-512/airplane/airplane5-dog3.png
vgg16,1,50,0,knife,airplane,50,../stimuli/style-transfer-preprocessed-512/airplane/airplane5-knife1.png
vgg16,1,51,0,oven,airplane,51,../stimuli/style-transfer-preprocessed-512/airplane/airplane5-oven3.png
vgg16,1,52,0,bear,airplane,52,../stimuli/style-transfer-preprocessed-512/airplane/airplane6-bear3.png
vgg16,1,53,0,bottle,airplane,53,../stimuli/style-transfer-preprocessed-512/airplane/airplane6-bottle2.png
vgg16,1,54,0,keyboard,airplane,54,../stimuli/style-transfer-preprocessed-512/airplane/airplane6-chair3.png
vgg16,1,55,0,bottle,airplane,55,../stimuli/style-transfer-preprocessed-512/airplane/airplane6-keyboard3.png
vgg16,1,56,0,knife,airplane,56,../stimuli/style-transfer-preprocessed-512/airplane/airplane6-knife1.png
vgg16,1,57,0,airplane,airplane,57,../stimuli/style-transfer-preprocessed-512/airplane/airplane7-airplane3.png
vgg16,1,58,0,dog,airplane,58,../stimuli/style-transfer-preprocessed-512/airplane/airplane7-bird3.png
vgg16,1,59,0,boat,airplane,59,../stimuli/style-transfer-preprocessed-512/airplane/airplane7-boat2.png
vgg16,1,60,0,bottle,airplane,60,../stimuli/style-transfer-preprocessed-512/airplane/airplane7-bottle3.png
vgg16,1,61,0,car,airplane,61,../stimuli/style-transfer-preprocessed-512/airplane/airplane7-car1.png
vgg16,1,62,0,dog,airplane,62,../stimuli/style-transfer-preprocessed-512/airplane/airplane7-cat3.png
vgg16,1,63,0,clock,airplane,63,../stimuli/style-transfer-preprocessed-512/airplane/airplane7-clock3.png
vgg16,1,64,0,keyboard,airplane,64,../stimuli/style-transfer-preprocessed-512/airplane/airplane7-keyboard1.png
vgg16,1,65,0,car,airplane,65,../stimuli/style-transfer-preprocessed-512/airplane/airplane7-truck1.png
vgg16,1,66,0,bicycle,airplane,66,../stimuli/style-transfer-preprocessed-512/airplane/airplane8-bicycle3.png
vgg16,1,67,0,bird,airplane,67,../stimuli/style-transfer-preprocessed-512/airplane/airplane8-bird1.png
vgg16,1,68,0,car,airplane,68,../stimuli/style-transfer-preprocessed-512/airplane/airplane8-chair1.png
vgg16,1,69,0,bottle,airplane,69,../stimuli/style-transfer-preprocessed-512/airplane/airplane8-clock2.png
vgg16,1,70,0,elephant,airplane,70,../stimuli/style-transfer-preprocessed-512/airplane/airplane8-elephant3.png
vgg16,1,71,0,oven,airplane,71,../stimuli/style-transfer-preprocessed-512/airplane/airplane8-oven2.png
vgg16,1,72,0,truck,airplane,72,../stimuli/style-transfer-preprocessed-512/airplane/airplane8-truck3.png
vgg16,1,73,0,airplane,airplane,73,../stimuli/style-transfer-preprocessed-512/airplane/airplane9-airplane2.png
vgg16,1,74,0,boat,airplane,74,../stimuli/style-transfer-preprocessed-512/airplane/airplane9-boat1.png
vgg16,1,75,0,car,airplane,75,../stimuli/style-transfer-preprocessed-512/airplane/airplane9-car2.png
vgg16,1,76,0,clock,airplane,76,../stimuli/style-transfer-preprocessed-512/airplane/airplane9-clock1.png
vgg16,1,77,0,bottle,airplane,77,../stimuli/style-transfer-preprocessed-512/airplane/airplane9-keyboard2.png
vgg16,1,78,0,knife,airplane,78,../stimuli/style-transfer-preprocessed-512/airplane/airplane9-knife3.png
vgg16,1,79,0,oven,airplane,79,../stimuli/style-transfer-preprocessed-512/airplane/airplane9-oven2.png
vgg16,1,80,0,car,airplane,80,../stimuli/style-transfer-preprocessed-512/airplane/airplane9-truck1.png
vgg16,1,81,0,airplane,bear,81,../stimuli/style-transfer-preprocessed-512/bear/bear1-airplane3.png
vgg16,1,82,0,bear,bear,82,../stimuli/style-transfer-preprocessed-512/bear/bear1-bear3.png
vgg16,1,83,0,bottle,bear,83,../stimuli/style-transfer-preprocessed-512/bear/bear1-bicycle3.png
vgg16,1,84,0,cat,bear,84,../stimuli/style-transfer-preprocessed-512/bear/bear1-bird2.png
vgg16,1,85,0,chair,bear,85,../stimuli/style-transfer-preprocessed-512/bear/bear1-chair2.png
vgg16,1,86,0,bottle,bear,86,../stimuli/style-transfer-preprocessed-512/bear/bear1-clock2.png
vgg16,1,87,0,elephant,bear,87,../stimuli/style-transfer-preprocessed-512/bear/bear1-elephant1.png
vgg16,1,88,0,bear,bear,88,../stimuli/style-transfer-preprocessed-512/bear/bear10-bear2.png
vgg16,1,89,0,bottle,bear,89,../stimuli/style-transfer-preprocessed-512/bear/bear10-bottle1.png
vgg16,1,90,0,car,bear,90,../stimuli/style-transfer-preprocessed-512/bear/bear10-car2.png
vgg16,1,91,0,cat,bear,91,../stimuli/style-transfer-preprocessed-512/bear/bear10-cat2.png
vgg16,1,92,0,chair,bear,92,../stimuli/style-transfer-preprocessed-512/bear/bear10-chair2.png
vgg16,1,93,0,clock,bear,93,../stimuli/style-transfer-preprocessed-512/bear/bear10-clock1.png
vgg16,1,94,0,elephant,bear,94,../stimuli/style-transfer-preprocessed-512/bear/bear10-elephant1.png
vgg16,1,95,0,bottle,bear,95,../stimuli/style-transfer-preprocessed-512/bear/bear10-keyboard3.png
vgg16,1,96,0,knife,bear,96,../stimuli/style-transfer-preprocessed-512/bear/bear10-knife2.png
vgg16,1,97,0,oven,bear,97,../stimuli/style-transfer-preprocessed-512/bear/bear10-oven1.png
vgg16,1,98,0,car,bear,98,../stimuli/style-transfer-preprocessed-512/bear/bear10-truck1.png
vgg16,1,99,0,airplane,bear,99,../stimuli/style-transfer-preprocessed-512/bear/bear2-airplane1.png
vgg16,1,100,0,dog,bear,100,../stimuli/style-transfer-preprocessed-512/bear/bear2-bird3.png
vgg16,1,101,0,car,bear,101,../stimuli/style-transfer-preprocessed-512/bear/bear2-car2.png
vgg16,1,102,0,cat,bear,102,../stimuli/style-transfer-preprocessed-512/bear/bear2-cat2.png
vgg16,1,103,0,dog,bear,103,../stimuli/style-transfer-preprocessed-512/bear/bear2-dog1.png
vgg16,1,104,0,elephant,bear,104,../stimuli/style-transfer-preprocessed-512/bear/bear2-elephant1.png
vgg16,1,105,0,bottle,bear,105,../stimuli/style-transfer-preprocessed-512/bear/bear2-keyboard2.png
vgg16,1,106,0,knife,bear,106,../stimuli/style-transfer-preprocessed-512/bear/bear2-knife2.png
vgg16,1,107,0,oven,bear,107,../stimuli/style-transfer-preprocessed-512/bear/bear2-oven1.png
vgg16,1,108,0,airplane,bear,108,../stimuli/style-transfer-preprocessed-512/bear/bear3-airplane1.png
vgg16,1,109,0,bicycle,bear,109,../stimuli/style-transfer-preprocessed-512/bear/bear3-bicycle2.png
vgg16,1,110,0,bird,bear,110,../stimuli/style-transfer-preprocessed-512/bear/bear3-bird3.png
vgg16,1,111,0,car,bear,111,../stimuli/style-transfer-preprocessed-512/bear/bear3-car2.png
vgg16,1,112,0,cat,bear,112,../stimuli/style-transfer-preprocessed-512/bear/bear3-cat1.png
vgg16,1,113,0,chair,bear,113,../stimuli/style-transfer-preprocessed-512/bear/bear3-chair2.png
vgg16,1,114,0,dog,bear,114,../stimuli/style-transfer-preprocessed-512/bear/bear3-dog3.png
vgg16,1,115,0,keyboard,bear,115,../stimuli/style-transfer-preprocessed-512/bear/bear3-keyboard2.png
vgg16,1,116,0,chair,bear,116,../stimuli/style-transfer-preprocessed-512/bear/bear3-truck3.png
vgg16,1,117,0,boat,bear,117,../stimuli/style-transfer-preprocessed-512/bear/bear4-boat2.png
vgg16,1,118,0,car,bear,118,../stimuli/style-transfer-preprocessed-512/bear/bear4-car3.png
vgg16,1,119,0,cat,bear,119,../stimuli/style-transfer-preprocessed-512/bear/bear4-cat3.png
vgg16,1,120,0,clock,bear,120,../stimuli/style-transfer-preprocessed-512/bear/bear4-clock3.png
vgg16,1,121,0,elephant,bear,121,../stimuli/style-transfer-preprocessed-512/bear/bear4-elephant2.png
vgg16,1,122,0,knife,bear,122,../stimuli/style-transfer-preprocessed-512/bear/bear4-keyboard3.png
vgg16,1,123,0,knife,bear,123,../stimuli/style-transfer-preprocessed-512/bear/bear4-knife1.png
vgg16,1,124,0,chair,bear,124,../stimuli/style-transfer-preprocessed-512/bear/bear4-oven2.png
vgg16,1,125,0,car,bear,125,../stimuli/style-transfer-preprocessed-512/bear/bear4-truck3.png
vgg16,1,126,0,knife,bear,126,../stimuli/style-transfer-preprocessed-512/bear/bear5-airplane3.png
vgg16,1,127,0,knife,bear,127,../stimuli/style-transfer-preprocessed-512/bear/bear5-bicycle3.png
vgg16,1,128,0,bird,bear,128,../stimuli/style-transfer-preprocessed-512/bear/bear5-bird1.png
vgg16,1,129,0,boat,bear,129,../stimuli/style-transfer-preprocessed-512/bear/bear5-boat2.png
vgg16,1,130,0,bottle,bear,130,../stimuli/style-transfer-preprocessed-512/bear/bear5-bottle1.png
vgg16,1,131,0,car,bear,131,../stimuli/style-transfer-preprocessed-512/bear/bear5-chair1.png
vgg16,1,132,0,oven,bear,132,../stimuli/style-transfer-preprocessed-512/bear/bear5-oven3.png
vgg16,1,133,0,bear,bear,133,../stimuli/style-transfer-preprocessed-512/bear/bear6-bear1.png
vgg16,1,134,0,bear,bear,134,../stimuli/style-transfer-preprocessed-512/bear/bear6-bird2.png
vgg16,1,135,0,clock,bear,135,../stimuli/style-transfer-preprocessed-512/bear/bear6-boat3.png
vgg16,1,136,0,bottle,bear,136,../stimuli/style-transfer-preprocessed-512/bear/bear6-bottle3.png
vgg16,1,137,0,car,bear,137,../stimuli/style-transfer-preprocessed-512/bear/bear6-car2.png
vgg16,1,138,0,cat,bear,138,../stimuli/style-transfer-preprocessed-512/bear/bear6-cat3.png
vgg16,1,139,0,car,bear,139,../stimuli/style-transfer-preprocessed-512/bear/bear6-chair1.png
vgg16,1,140,0,clock,bear,140,../stimuli/style-transfer-preprocessed-512/bear/bear6-clock1.png
vgg16,1,141,0,bear,bear,141,../stimuli/style-transfer-preprocessed-512/bear/bear7-bear2.png
vgg16,1,142,0,bicycle,bear,142,../stimuli/style-transfer-preprocessed-512/bear/bear7-bicycle2.png
vgg16,1,143,0,clock,bear,143,../stimuli/style-transfer-preprocessed-512/bear/bear7-clock1.png
vgg16,1,144,0,bear,bear,144,../stimuli/style-transfer-preprocessed-512/bear/bear7-dog3.png
vgg16,1,145,0,oven,bear,145,../stimuli/style-transfer-preprocessed-512/bear/bear7-oven3.png
vgg16,1,146,0,car,bear,146,../stimuli/style-transfer-preprocessed-512/bear/bear7-truck1.png
vgg16,1,147,0,airplane,bear,147,../stimuli/style-transfer-preprocessed-512/bear/bear8-airplane1.png
vgg16,1,148,0,bear,bear,148,../stimuli/style-transfer-preprocessed-512/bear/bear8-bear1.png
vgg16,1,149,0,knife,bear,149,../stimuli/style-transfer-preprocessed-512/bear/bear8-bicycle3.png
vgg16,1,150,0,boat,bear,150,../stimuli/style-transfer-preprocessed-512/bear/bear8-boat2.png
vgg16,1,151,0,bottle,bear,151,../stimuli/style-transfer-preprocessed-512/bear/bear8-bottle1.png
vgg16,1,152,0,dog,bear,152,../stimuli/style-transfer-preprocessed-512/bear/bear8-dog1.png
vgg16,1,153,0,elephant,bear,153,../stimuli/style-transfer-preprocessed-512/bear/bear8-elephant2.png
vgg16,1,154,0,knife,bear,154,../stimuli/style-transfer-preprocessed-512/bear/bear8-knife3.png
vgg16,1,155,0,truck,bear,155,../stimuli/style-transfer-preprocessed-512/bear/bear8-truck3.png
vgg16,1,156,0,boat,bear,156,../stimuli/style-transfer-preprocessed-512/bear/bear9-boat2.png
vgg16,1,157,0,bottle,bear,157,../stimuli/style-transfer-preprocessed-512/bear/bear9-bottle2.png
vgg16,1,158,0,dog,bear,158,../stimuli/style-transfer-preprocessed-512/bear/bear9-dog1.png
vgg16,1,159,0,keyboard,bear,159,../stimuli/style-transfer-preprocessed-512/bear/bear9-keyboard3.png
vgg16,1,160,0,knife,bear,160,../stimuli/style-transfer-preprocessed-512/bear/bear9-knife2.png
vgg16,1,161,0,airplane,bicycle,161,../stimuli/style-transfer-preprocessed-512/bicycle/bicycle1-airplane2.png
vgg16,1,162,0,cat,bicycle,162,../stimuli/style-transfer-preprocessed-512/bicycle/bicycle1-bear1.png
vgg16,1,163,0,bicycle,bicycle,163,../stimuli/style-transfer-preprocessed-512/bicycle/bicycle1-bicycle3.png
vgg16,1,164,0,bird,bicycle,164,../stimuli/style-transfer-preprocessed-512/bicycle/bicycle1-bird1.png
vgg16,1,165,0,boat,bicycle,165,../stimuli/style-transfer-preprocessed-512/bicycle/bicycle1-boat3.png
vgg16,1,166,0,clock,bicycle,166,../stimuli/style-transfer-preprocessed-512/bicycle/bicycle1-bottle3.png
vgg16,1,167,0,chair,bicycle,167,../stimuli/style-transfer-preprocessed-512/bicycle/bicycle1-chair1.png
vgg16,1,168,0,clock,bicycle,168,../stimuli/style-transfer-preprocessed-512/bicycle/bicycle1-clock3.png
vgg16,1,169,0,dog,bicycle,169,../stimuli/style-transfer-preprocessed-512/bicycle/bicycle1-dog3.png
vgg16,1,170,0,elephant,bicycle,170,../stimuli/style-transfer-preprocessed-512/bicycle/bicycle1-elephant2.png
vgg16,1,171,0,knife,bicycle,171,../stimuli/style-transfer-preprocessed-512/bicycle/bicycle1-knife3.png
vgg16,1,172,0,chair,bicycle,172,../stimuli/style-transfer-preprocessed-512/bicycle/bicycle1-oven1.png
vgg16,1,173,0,car,bicycle,173,../stimuli/style-transfer-preprocessed-512/bicycle/bicycle1-truck1.png
vgg16,1,174,0,car,bicycle,174,../stimuli/style-transfer-preprocessed-512/bicycle/bicycle10-airplane2.png
vgg16,1,175,0,truck,bicycle,175,../stimuli/style-transfer-preprocessed-512/bicycle/bicycle10-boat3.png
vgg16,1,176,0,clock,bicycle,176,../stimuli/style-transfer-preprocessed-512/bicycle/bicycle10-clock2.png
vgg16,1,177,0,dog,bicycle,177,../stimuli/style-transfer-preprocessed-512/bicycle/bicycle10-dog3.png
vgg16,1,178,0,elephant,bicycle,178,../stimuli/style-transfer-preprocessed-512/bicycle/bicycle10-elephant2.png
vgg16,1,179,0,bicycle,bicycle,179,../stimuli/style-transfer-preprocessed-512/bicycle/bicycle2-bicycle1.png
vgg16,1,180,0,clock,bicycle,180,../stimuli/style-transfer-preprocessed-512/bicycle/bicycle2-bird3.png
vgg16,1,181,0,bottle,bicycle,181,../stimuli/style-transfer-preprocessed-512/bicycle/bicycle2-bottle1.png
vgg16,1,182,0,car,bicycle,182,../stimuli/style-transfer-preprocessed-512/bicycle/bicycle2-car2.png
vgg16,1,183,0,dog,bicycle,183,../stimuli/style-transfer-preprocessed-512/bicycle/bicycle2-dog1.png
vgg16,1,184,0,bottle,bicycle,184,../stimuli/style-transfer-preprocessed-512/bicycle/bicycle2-keyboard2.png
vgg16,1,185,0,truck,bicycle,185,../stimuli/style-transfer-preprocessed-512/bicycle/bicycle2-knife2.png
vgg16,1,186,0,bird,bicycle,186,../stimuli/style-transfer-preprocessed-512/bicycle/bicycle3-bird1.png
vgg16,1,187,0,elephant,bicycle,187,../stimuli/style-transfer-preprocessed-512/bicycle/bicycle3-elephant2.png
vgg16,1,188,0,bicycle,bicycle,188,../stimuli/style-transfer-preprocessed-512/bicycle/bicycle3-keyboard1.png
vgg16,1,189,0,truck,bicycle,189,../stimuli/style-transfer-preprocessed-512/bicycle/bicycle3-oven3.png
vgg16,1,190,0,truck,bicycle,190,../stimuli/style-transfer-preprocessed-512/bicycle/bicycle3-truck3.png
vgg16,1,191,0,airplane,bicycle,191,../stimuli/style-transfer-preprocessed-512/bicycle/bicycle4-airplane1.png
vgg16,1,192,0,bicycle,bicycle,192,../stimuli/style-transfer-preprocessed-512/bicycle/bicycle4-bicycle3.png
vgg16,1,193,0,bicycle,bicycle,193,../stimuli/style-transfer-preprocessed-512/bicycle/bicycle4-boat1.png
vgg16,1,194,0,bottle,bicycle,194,../stimuli/style-transfer-preprocessed-512/bicycle/bicycle4-bottle1.png
vgg16,1,195,0,car,bicycle,195,../stimuli/style-transfer-preprocessed-512/bicycle/bicycle4-car2.png
vgg16,1,196,0,cat,bicycle,196,../stimuli/style-transfer-preprocessed-512/bicycle/bicycle4-cat1.png
vgg16,1,197,0,chair,bicycle,197,../stimuli/style-transfer-preprocessed-512/bicycle/bicycle4-chair2.png
vgg16,1,198,0,clock,bicycle,198,../stimuli/style-transfer-preprocessed-512/bicycle/bicycle4-clock3.png
vgg16,1,199,0,bottle,bicycle,199,../stimuli/style-transfer-preprocessed-512/bicycle/bicycle4-keyboard3.png
vgg16,1,200,0,knife,bicycle,200,../stimuli/style-transfer-preprocessed-512/bicycle/bicycle4-knife3.png
vgg16,1,201,0,truck,bicycle,201,../stimuli/style-transfer-preprocessed-512/bicycle/bicycle4-oven3.png
vgg16,1,202,0,truck,bicycle,202,../stimuli/style-transfer-preprocessed-512/bicycle/bicycle4-truck3.png
vgg16,1,203,0,cat,bicycle,203,../stimuli/style-transfer-preprocessed-512/bicycle/bicycle5-bear1.png
vgg16,1,204,0,clock,bicycle,204,../stimuli/style-transfer-preprocessed-512/bicycle/bicycle5-bottle3.png
vgg16,1,205,0,car,bicycle,205,../stimuli/style-transfer-preprocessed-512/bicycle/bicycle5-car3.png
vgg16,1,206,0,cat,bicycle,206,../stimuli/style-transfer-preprocessed-512/bicycle/bicycle5-cat1.png
vgg16,1,207,0,chair,bicycle,207,../stimuli/style-transfer-preprocessed-512/bicycle/bicycle5-chair2.png
vgg16,1,208,0,cat,bicycle,208,../stimuli/style-transfer-preprocessed-512/bicycle/bicycle5-dog2.png
vgg16,1,209,0,elephant,bicycle,209,../stimuli/style-transfer-preprocessed-512/bicycle/bicycle5-elephant1.png
vgg16,1,210,0,car,bicycle,210,../stimuli/style-transfer-preprocessed-512/bicycle/bicycle5-keyboard3.png
vgg16,1,211,0,truck,bicycle,211,../stimuli/style-transfer-preprocessed-512/bicycle/bicycle5-oven3.png
vgg16,1,212,0,airplane,bicycle,212,../stimuli/style-transfer-preprocessed-512/bicycle/bicycle6-airplane2.png
vgg16,1,213,0,bottle,bicycle,213,../stimuli/style-transfer-preprocessed-512/bicycle/bicycle6-bicycle3.png
vgg16,1,214,0,boat,bicycle,214,../stimuli/style-transfer-preprocessed-512/bicycle/bicycle6-boat2.png
vgg16,1,215,0,car,bicycle,215,../stimuli/style-transfer-preprocessed-512/bicycle/bicycle6-car2.png
vgg16,1,216,0,cat,bicycle,216,../stimuli/style-transfer-preprocessed-512/bicycle/bicycle6-cat1.png
vgg16,1,217,0,dog,bicycle,217,../stimuli/style-transfer-preprocessed-512/bicycle/bicycle6-dog2.png
vgg16,1,218,0,cat,bicycle,218,../stimuli/style-transfer-preprocessed-512/bicycle/bicycle7-bear2.png
vgg16,1,219,0,bicycle,bicycle,219,../stimuli/style-transfer-preprocessed-512/bicycle/bicycle7-bicycle2.png
vgg16,1,220,0,cat,bicycle,220,../stimuli/style-transfer-preprocessed-512/bicycle/bicycle7-cat1.png
vgg16,1,221,0,clock,bicycle,221,../stimuli/style-transfer-preprocessed-512/bicycle/bicycle7-clock3.png
vgg16,1,222,0,elephant,bicycle,222,../stimuli/style-transfer-preprocessed-512/bicycle/bicycle7-elephant2.png
vgg16,1,223,0,knife,bicycle,223,../stimuli/style-transfer-preprocessed-512/bicycle/bicycle7-knife2.png
vgg16,1,224,0,chair,bicycle,224,../stimuli/style-transfer-preprocessed-512/bicycle/bicycle7-oven1.png
vgg16,1,225,0,chair,bicycle,225,../stimuli/style-transfer-preprocessed-512/bicycle/bicycle7-truck3.png
vgg16,1,226,0,cat,bicycle,226,../stimuli/style-transfer-preprocessed-512/bicycle/bicycle8-bear2.png
vgg16,1,227,0,bicycle,bicycle,227,../stimuli/style-transfer-preprocessed-512/bicycle/bicycle8-bird2.png
vgg16,1,228,0,boat,bicycle,228,../stimuli/style-transfer-preprocessed-512/bicycle/bicycle8-boat1.png
vgg16,1,229,0,chair,bicycle,229,../stimuli/style-transfer-preprocessed-512/bicycle/bicycle8-chair2.png
vgg16,1,230,0,clock,bicycle,230,../stimuli/style-transfer-preprocessed-512/bicycle/bicycle8-clock3.png
vgg16,1,231,0,car,bicycle,231,../stimuli/style-transfer-preprocessed-512/bicycle/bicycle8-truck1.png
vgg16,1,232,0,car,bicycle,232,../stimuli/style-transfer-preprocessed-512/bicycle/bicycle9-airplane2.png
vgg16,1,233,0,cat,bicycle,233,../stimuli/style-transfer-preprocessed-512/bicycle/bicycle9-bear1.png
vgg16,1,234,0,clock,bicycle,234,../stimuli/style-transfer-preprocessed-512/bicycle/bicycle9-bird3.png
vgg16,1,235,0,bottle,bicycle,235,../stimuli/style-transfer-preprocessed-512/bicycle/bicycle9-bottle1.png
vgg16,1,236,0,boat,bicycle,236,../stimuli/style-transfer-preprocessed-512/bicycle/bicycle9-car1.png
vgg16,1,237,0,cat,bicycle,237,../stimuli/style-transfer-preprocessed-512/bicycle/bicycle9-cat3.png
vgg16,1,238,0,car,bicycle,238,../stimuli/style-transfer-preprocessed-512/bicycle/bicycle9-chair1.png
vgg16,1,239,0,car,bicycle,239,../stimuli/style-transfer-preprocessed-512/bicycle/bicycle9-keyboard3.png
vgg16,1,240,0,knife,bicycle,240,../stimuli/style-transfer-preprocessed-512/bicycle/bicycle9-knife3.png
vgg16,1,241,0,car,bird,241,../stimuli/style-transfer-preprocessed-512/bird/bird1-airplane2.png
vgg16,1,242,0,bear,bird,242,../stimuli/style-transfer-preprocessed-512/bird/bird1-bear1.png
vgg16,1,243,0,bottle,bird,243,../stimuli/style-transfer-preprocessed-512/bird/bird1-bicycle2.png
vgg16,1,244,0,boat,bird,244,../stimuli/style-transfer-preprocessed-512/bird/bird1-boat1.png
vgg16,1,245,0,chair,bird,245,../stimuli/style-transfer-preprocessed-512/bird/bird1-chair2.png
vgg16,1,246,0,clock,bird,246,../stimuli/style-transfer-preprocessed-512/bird/bird1-clock3.png
vgg16,1,247,0,elephant,bird,247,../stimuli/style-transfer-preprocessed-512/bird/bird1-elephant2.png
vgg16,1,248,0,knife,bird,248,../stimuli/style-transfer-preprocessed-512/bird/bird1-keyboard3.png
vgg16,1,249,0,knife,bird,249,../stimuli/style-transfer-preprocessed-512/bird/bird1-knife3.png
vgg16,1,250,0,car,bird,250,../stimuli/style-transfer-preprocessed-512/bird/bird1-oven1.png
vgg16,1,251,0,bottle,bird,251,../stimuli/style-transfer-preprocessed-512/bird/bird1-truck1.png
vgg16,1,252,0,bear,bird,252,../stimuli/style-transfer-preprocessed-512/bird/bird10-bear2.png
vgg16,1,253,0,bicycle,bird,253,../stimuli/style-transfer-preprocessed-512/bird/bird10-bicycle1.png
vgg16,1,254,0,bird,bird,254,../stimuli/style-transfer-preprocessed-512/bird/bird10-bird2.png
vgg16,1,255,0,cat,bird,255,../stimuli/style-transfer-preprocessed-512/bird/bird10-cat1.png
vgg16,1,256,0,car,bird,256,../stimuli/style-transfer-preprocessed-512/bird/bird10-chair1.png
vgg16,1,257,0,clock,bird,257,../stimuli/style-transfer-preprocessed-512/bird/bird10-clock1.png
vgg16,1,258,0,elephant,bird,258,../stimuli/style-transfer-preprocessed-512/bird/bird10-elephant2.png
vgg16,1,259,0,clock,bird,259,../stimuli/style-transfer-preprocessed-512/bird/bird2-airplane3.png
vgg16,1,260,0,bird,bird,260,../stimuli/style-transfer-preprocessed-512/bird/bird2-bird2.png
vgg16,1,261,0,car,bird,261,../stimuli/style-transfer-preprocessed-512/bird/bird2-car3.png
vgg16,1,262,0,clock,bird,262,../stimuli/style-transfer-preprocessed-512/bird/bird2-clock3.png
vgg16,1,263,0,dog,bird,263,../stimuli/style-transfer-preprocessed-512/bird/bird2-dog2.png
vgg16,1,264,0,knife,bird,264,../stimuli/style-transfer-preprocessed-512/bird/bird2-knife1.png
vgg16,1,265,0,bear,bird,265,../stimuli/style-transfer-preprocessed-512/bird/bird3-bear3.png
vgg16,1,266,0,bird,bird,266,../stimuli/style-transfer-preprocessed-512/bird/bird3-bird2.png
vgg16,1,267,0,truck,bird,267,../stimuli/style-transfer-preprocessed-512/bird/bird3-boat3.png
vgg16,1,268,0,bottle,bird,268,../stimuli/style-transfer-preprocessed-512/bird/bird3-bottle2.png
vgg16,1,269,0,cat,bird,269,../stimuli/style-transfer-preprocessed-512/bird/bird3-cat1.png
vgg16,1,270,0,dog,bird,270,../stimuli/style-transfer-preprocessed-512/bird/bird3-dog1.png
vgg16,1,271,0,knife,bird,271,../stimuli/style-transfer-preprocessed-512/bird/bird3-knife3.png
vgg16,1,272,0,oven,bird,272,../stimuli/style-transfer-preprocessed-512/bird/bird3-oven1.png
vgg16,1,273,0,truck,bird,273,../stimuli/style-transfer-preprocessed-512/bird/bird3-truck3.png
vgg16,1,274,0,clock,bird,274,../stimuli/style-transfer-preprocessed-512/bird/bird4-airplane1.png
vgg16,1,275,0,chair,bird,275,../stimuli/style-transfer-preprocessed-512/bird/bird4-bicycle2.png
vgg16,1,276,0,dog,bird,276,../stimuli/style-transfer-preprocessed-512/bird/bird4-cat3.png
vgg16,1,277,0,clock,bird,277,../stimuli/style-transfer-preprocessed-512/bird/bird4-clock1.png
vgg16,1,278,0,dog,bird,278,../stimuli/style-transfer-preprocessed-512/bird/bird4-dog3.png
vgg16,1,279,0,airplane,bird,279,../stimuli/style-transfer-preprocessed-512/bird/bird5-airplane3.png
vgg16,1,280,0,bear,bird,280,../stimuli/style-transfer-preprocessed-512/bird/bird5-bear3.png
vgg16,1,281,0,bicycle,bird,281,../stimuli/style-transfer-preprocessed-512/bird/bird5-bicycle1.png
vgg16,1,282,0,bird,bird,282,../stimuli/style-transfer-preprocessed-512/bird/bird5-bird1.png
vgg16,1,283,0,car,bird,283,../stimuli/style-transfer-preprocessed-512/bird/bird5-car2.png
vgg16,1,284,0,cat,bird,284,../stimuli/style-transfer-preprocessed-512/bird/bird5-cat2.png
vgg16,1,285,0,car,bird,285,../stimuli/style-transfer-preprocessed-512/bird/bird5-chair1.png
vgg16,1,286,0,dog,bird,286,../stimuli/style-transfer-preprocessed-512/bird/bird5-dog2.png
vgg16,1,287,0,bottle,bird,287,../stimuli/style-transfer-preprocessed-512/bird/bird5-keyboard2.png
vgg16,1,288,0,oven,bird,288,../stimuli/style-transfer-preprocessed-512/bird/bird5-oven3.png
vgg16,1,289,0,truck,bird,289,../stimuli/style-transfer-preprocessed-512/bird/bird5-truck2.png
vgg16,1,290,0,airplane,bird,290,../stimuli/style-transfer-preprocessed-512/bird/bird6-airplane2.png
vgg16,1,291,0,boat,bird,291,../stimuli/style-transfer-preprocessed-512/bird/bird6-boat2.png
vgg16,1,292,0,bottle,bird,292,../stimuli/style-transfer-preprocessed-512/bird/bird6-bottle3.png
vgg16,1,293,0,car,bird,293,../stimuli/style-transfer-preprocessed-512/bird/bird6-car3.png
vgg16,1,294,0,elephant,bird,294,../stimuli/style-transfer-preprocessed-512/bird/bird6-elephant2.png
vgg16,1,295,0,knife,bird,295,../stimuli/style-transfer-preprocessed-512/bird/bird6-oven1.png
vgg16,1,296,0,car,bird,296,../stimuli/style-transfer-preprocessed-512/bird/bird6-truck2.png
vgg16,1,297,0,bird,bird,297,../stimuli/style-transfer-preprocessed-512/bird/bird7-bird2.png
vgg16,1,298,0,boat,bird,298,../stimuli/style-transfer-preprocessed-512/bird/bird7-boat1.png
vgg16,1,299,0,bottle,bird,299,../stimuli/style-transfer-preprocessed-512/bird/bird7-bottle1.png
vgg16,1,300,0,car,bird,300,../stimuli/style-transfer-preprocessed-512/bird/bird7-car2.png
vgg16,1,301,0,cat,bird,301,../stimuli/style-transfer-preprocessed-512/bird/bird7-cat3.png
vgg16,1,302,0,car,bird,302,../stimuli/style-transfer-preprocessed-512/bird/bird7-keyboard3.png
vgg16,1,303,0,knife,bird,303,../stimuli/style-transfer-preprocessed-512/bird/bird7-knife2.png
vgg16,1,304,0,oven,bird,304,../stimuli/style-transfer-preprocessed-512/bird/bird7-oven3.png
vgg16,1,305,0,truck,bird,305,../stimuli/style-transfer-preprocessed-512/bird/bird7-truck2.png
vgg16,1,306,0,boat,bird,306,../stimuli/style-transfer-preprocessed-512/bird/bird8-boat3.png
vgg16,1,307,0,bottle,bird,307,../stimuli/style-transfer-preprocessed-512/bird/bird8-bottle1.png
vgg16,1,308,0,bicycle,bird,308,../stimuli/style-transfer-preprocessed-512/bird/bird8-car2.png
vgg16,1,309,0,car,bird,309,../stimuli/style-transfer-preprocessed-512/bird/bird8-chair1.png
vgg16,1,310,0,clock,bird,310,../stimuli/style-transfer-preprocessed-512/bird/bird8-clock1.png
vgg16,1,311,0,elephant,bird,311,../stimuli/style-transfer-preprocessed-512/bird/bird8-elephant1.png
vgg16,1,312,0,bicycle,bird,312,../stimuli/style-transfer-preprocessed-512/bird/bird8-keyboard2.png
vgg16,1,313,0,knife,bird,313,../stimuli/style-transfer-preprocessed-512/bird/bird8-knife2.png
vgg16,1,314,0,bear,bird,314,../stimuli/style-transfer-preprocessed-512/bird/bird9-bear3.png
vgg16,1,315,0,knife,bird,315,../stimuli/style-transfer-preprocessed-512/bird/bird9-bicycle3.png
vgg16,1,316,0,bottle,bird,316,../stimuli/style-transfer-preprocessed-512/bird/bird9-bottle3.png
vgg16,1,317,0,car,bird,317,../stimuli/style-transfer-preprocessed-512/bird/bird9-chair1.png
vgg16,1,318,0,dog,bird,318,../stimuli/style-transfer-preprocessed-512/bird/bird9-dog2.png
vgg16,1,319,0,elephant,bird,319,../stimuli/style-transfer-preprocessed-512/bird/bird9-elephant2.png
vgg16,1,320,0,bottle,bird,320,../stimuli/style-transfer-preprocessed-512/bird/bird9-keyboard1.png
vgg16,1,321,0,bear,boat,321,../stimuli/style-transfer-preprocessed-512/boat/boat1-bear1.png
vgg16,1,322,0,bottle,boat,322,../stimuli/style-transfer-preprocessed-512/boat/boat1-bicycle2.png
vgg16,1,323,0,oven,boat,323,../stimuli/style-transfer-preprocessed-512/boat/boat1-bird3.png
vgg16,1,324,0,car,boat,324,../stimuli/style-transfer-preprocessed-512/boat/boat1-car2.png
vgg16,1,325,0,chair,boat,325,../stimuli/style-transfer-preprocessed-512/boat/boat1-chair3.png
vgg16,1,326,0,elephant,boat,326,../stimuli/style-transfer-preprocessed-512/boat/boat1-elephant3.png
vgg16,1,327,0,bottle,boat,327,../stimuli/style-transfer-preprocessed-512/boat/boat1-keyboard3.png
vgg16,1,328,0,car,boat,328,../stimuli/style-transfer-preprocessed-512/boat/boat1-oven1.png
vgg16,1,329,0,truck,boat,329,../stimuli/style-transfer-preprocessed-512/boat/boat1-truck3.png
vgg16,1,330,0,bear,boat,330,../stimuli/style-transfer-preprocessed-512/boat/boat10-bear3.png
vgg16,1,331,0,boat,boat,331,../stimuli/style-transfer-preprocessed-512/boat/boat10-boat3.png
vgg16,1,332,0,cat,boat,332,../stimuli/style-transfer-preprocessed-512/boat/boat10-cat1.png
vgg16,1,333,0,car,boat,333,../stimuli/style-transfer-preprocessed-512/boat/boat10-oven1.png
vgg16,1,334,0,car,boat,334,../stimuli/style-transfer-preprocessed-512/boat/boat10-truck1.png
vgg16,1,335,0,clock,boat,335,../stimuli/style-transfer-preprocessed-512/boat/boat2-airplane1.png
vgg16,1,336,0,bear,boat,336,../stimuli/style-transfer-preprocessed-512/boat/boat2-bear3.png
vgg16,1,337,0,bird,boat,337,../stimuli/style-transfer-preprocessed-512/boat/boat2-bird1.png
vgg16,1,338,0,bottle,boat,338,../stimuli/style-transfer-preprocessed-512/boat/boat2-bottle2.png
vgg16,1,339,0,keyboard,boat,339,../stimuli/style-transfer-preprocessed-512/boat/boat2-keyboard1.png
vgg16,1,340,0,clock,boat,340,../stimuli/style-transfer-preprocessed-512/boat/boat2-oven3.png
vgg16,1,341,0,airplane,boat,341,../stimuli/style-transfer-preprocessed-512/boat/boat3-airplane2.png
vgg16,1,342,0,bottle,boat,342,../stimuli/style-transfer-preprocessed-512/boat/boat3-bicycle2.png
vgg16,1,343,0,car,boat,343,../stimuli/style-transfer-preprocessed-512/boat/boat3-car3.png
vgg16,1,344,0,cat,boat,344,../stimuli/style-transfer-preprocessed-512/boat/boat3-cat3.png
vgg16,1,345,0,chair,boat,345,../stimuli/style-transfer-preprocessed-512/boat/boat3-chair3.png
vgg16,1,346,0,clock,boat,346,../stimuli/style-transfer-preprocessed-512/boat/boat3-clock3.png
vgg16,1,347,0,dog,boat,347,../stimuli/style-transfer-preprocessed-512/boat/boat3-dog3.png
vgg16,1,348,0,bottle,boat,348,../stimuli/style-transfer-preprocessed-512/boat/boat3-keyboard2.png
vgg16,1,349,0,chair,boat,349,../stimuli/style-transfer-preprocessed-512/boat/boat4-bicycle3.png
vgg16,1,350,0,bird,boat,350,../stimuli/style-transfer-preprocessed-512/boat/boat4-bird1.png
vgg16,1,351,0,chair,boat,351,../stimuli/style-transfer-preprocessed-512/boat/boat4-boat3.png
vgg16,1,352,0,bottle,boat,352,../stimuli/style-transfer-preprocessed-512/boat/boat4-bottle2.png
vgg16,1,353,0,car,boat,353,../stimuli/style-transfer-preprocessed-512/boat/boat4-car3.png
vgg16,1,354,0,chair,boat,354,../stimuli/style-transfer-preprocessed-512/boat/boat4-chair2.png
vgg16,1,355,0,dog,boat,355,../stimuli/style-transfer-preprocessed-512/boat/boat4-dog2.png
vgg16,1,356,0,elephant,boat,356,../stimuli/style-transfer-preprocessed-512/boat/boat4-elephant2.png
vgg16,1,357,0,knife,boat,357,../stimuli/style-transfer-preprocessed-512/boat/boat4-knife2.png
vgg16,1,358,0,keyboard,boat,358,../stimuli/style-transfer-preprocessed-512/boat/boat5-airplane1.png
vgg16,1,359,0,knife,boat,359,../stimuli/style-transfer-preprocessed-512/boat/boat5-bicycle3.png
vgg16,1,360,0,truck,boat,360,../stimuli/style-transfer-preprocessed-512/boat/boat5-boat3.png
vgg16,1,361,0,truck,boat,361,../stimuli/style-transfer-preprocessed-512/boat/boat5-car3.png
vgg16,1,362,0,clock,boat,362,../stimuli/style-transfer-preprocessed-512/boat/boat5-clock3.png
vgg16,1,363,0,knife,boat,363,../stimuli/style-transfer-preprocessed-512/boat/boat5-knife2.png
vgg16,1,364,0,airplane,boat,364,../stimuli/style-transfer-preprocessed-512/boat/boat6-airplane2.png
vgg16,1,365,0,bear,boat,365,../stimuli/style-transfer-preprocessed-512/boat/boat6-bear1.png
vgg16,1,366,0,bicycle,boat,366,../stimuli/style-transfer-preprocessed-512/boat/boat6-bicycle2.png
vgg16,1,367,0,bottle,boat,367,../stimuli/style-transfer-preprocessed-512/boat/boat6-bottle2.png
vgg16,1,368,0,car,boat,368,../stimuli/style-transfer-preprocessed-512/boat/boat6-car1.png
vgg16,1,369,0,cat,boat,369,../stimuli/style-transfer-preprocessed-512/boat/boat6-cat1.png
vgg16,1,370,0,bottle,boat,370,../stimuli/style-transfer-preprocessed-512/boat/boat6-clock2.png
vgg16,1,371,0,dog,boat,371,../stimuli/style-transfer-preprocessed-512/boat/boat6-dog1.png
vgg16,1,372,0,elephant,boat,372,../stimuli/style-transfer-preprocessed-512/boat/boat6-elephant2.png
vgg16,1,373,0,knife,boat,373,../stimuli/style-transfer-preprocessed-512/boat/boat6-knife2.png
vgg16,1,374,0,truck,boat,374,../stimuli/style-transfer-preprocessed-512/boat/boat6-truck3.png
vgg16,1,375,0,boat,boat,375,../stimuli/style-transfer-preprocessed-512/boat/boat7-boat2.png
vgg16,1,376,0,bottle,boat,376,../stimuli/style-transfer-preprocessed-512/boat/boat7-bottle1.png
vgg16,1,377,0,cat,boat,377,../stimuli/style-transfer-preprocessed-512/boat/boat7-cat3.png
vgg16,1,378,0,car,boat,378,../stimuli/style-transfer-preprocessed-512/boat/boat7-chair1.png
vgg16,1,379,0,clock,boat,379,../stimuli/style-transfer-preprocessed-512/boat/boat7-clock3.png
vgg16,1,380,0,elephant,boat,380,../stimuli/style-transfer-preprocessed-512/boat/boat7-elephant3.png
vgg16,1,381,0,keyboard,boat,381,../stimuli/style-transfer-preprocessed-512/boat/boat7-keyboard3.png
vgg16,1,382,0,truck,boat,382,../stimuli/style-transfer-preprocessed-512/boat/boat7-oven3.png
vgg16,1,383,0,truck,boat,383,../stimuli/style-transfer-preprocessed-512/boat/boat7-truck2.png
vgg16,1,384,0,bird,boat,384,../stimuli/style-transfer-preprocessed-512/boat/boat8-bird2.png
vgg16,1,385,0,bottle,boat,385,../stimuli/style-transfer-preprocessed-512/boat/boat8-bottle1.png
vgg16,1,386,0,dog,boat,386,../stimuli/style-transfer-preprocessed-512/boat/boat8-dog3.png
vgg16,1,387,0,elephant,boat,387,../stimuli/style-transfer-preprocessed-512/boat/boat8-elephant1.png
vgg16,1,388,0,knife,boat,388,../stimuli/style-transfer-preprocessed-512/boat/boat8-knife1.png
vgg16,1,389,0,car,boat,389,../stimuli/style-transfer-preprocessed-512/boat/boat8-oven1.png
vgg16,1,390,0,car,boat,390,../stimuli/style-transfer-preprocessed-512/boat/boat8-truck2.png
vgg16,1,391,0,boat,boat,391,../stimuli/style-transfer-preprocessed-512/boat/boat9-airplane2.png
vgg16,1,392,0,bear,boat,392,../stimuli/style-transfer-preprocessed-512/boat/boat9-bear3.png
vgg16,1,393,0,bird,boat,393,../stimuli/style-transfer-preprocessed-512/boat/boat9-bird1.png
vgg16,1,394,0,boat,boat,394,../stimuli/style-transfer-preprocessed-512/boat/boat9-boat3.png
vgg16,1,395,0,cat,boat,395,../stimuli/style-transfer-preprocessed-512/boat/boat9-cat3.png
vgg16,1,396,0,chair,boat,396,../stimuli/style-transfer-preprocessed-512/boat/boat9-chair2.png
vgg16,1,397,0,clock,boat,397,../stimuli/style-transfer-preprocessed-512/boat/boat9-clock1.png
vgg16,1,398,0,dog,boat,398,../stimuli/style-transfer-preprocessed-512/boat/boat9-dog2.png
vgg16,1,399,0,car,boat,399,../stimuli/style-transfer-preprocessed-512/boat/boat9-keyboard2.png
vgg16,1,400,0,truck,boat,400,../stimuli/style-transfer-preprocessed-512/boat/boat9-knife2.png
vgg16,1,401,0,bear,bottle,401,../stimuli/style-transfer-preprocessed-512/bottle/bottle1-bear1.png
vgg16,1,402,0,dog,bottle,402,../stimuli/style-transfer-preprocessed-512/bottle/bottle1-bird3.png
vgg16,1,403,0,car,bottle,403,../stimuli/style-transfer-preprocessed-512/bottle/bottle1-car1.png
vgg16,1,404,0,cat,bottle,404,../stimuli/style-transfer-preprocessed-512/bottle/bottle1-cat3.png
vgg16,1,405,0,chair,bottle,405,../stimuli/style-transfer-preprocessed-512/bottle/bottle1-chair2.png
vgg16,1,406,0,clock,bottle,406,../stimuli/style-transfer-preprocessed-512/bottle/bottle1-clock1.png
vgg16,1,407,0,dog,bottle,407,../stimuli/style-transfer-preprocessed-512/bottle/bottle1-dog2.png
vgg16,1,408,0,clock,bottle,408,../stimuli/style-transfer-preprocessed-512/bottle/bottle1-keyboard3.png
vgg16,1,409,0,bear,bottle,409,../stimuli/style-transfer-preprocessed-512/bottle/bottle10-bear2.png
vgg16,1,410,0,truck,bottle,410,../stimuli/style-transfer-preprocessed-512/bottle/bottle10-boat3.png
vgg16,1,411,0,car,bottle,411,../stimuli/style-transfer-preprocessed-512/bottle/bottle10-car1.png
vgg16,1,412,0,clock,bottle,412,../stimuli/style-transfer-preprocessed-512/bottle/bottle10-clock2.png
vgg16,1,413,0,dog,bottle,413,../stimuli/style-transfer-preprocessed-512/bottle/bottle10-dog1.png
vgg16,1,414,0,bottle,bottle,414,../stimuli/style-transfer-preprocessed-512/bottle/bottle10-truck3.png
vgg16,1,415,0,bottle,bottle,415,../stimuli/style-transfer-preprocessed-512/bottle/bottle2-bottle3.png
vgg16,1,416,0,car,bottle,416,../stimuli/style-transfer-preprocessed-512/bottle/bottle2-car2.png
vgg16,1,417,0,chair,bottle,417,../stimuli/style-transfer-preprocessed-512/bottle/bottle2-chair3.png
vgg16,1,418,0,clock,bottle,418,../stimuli/style-transfer-preprocessed-512/bottle/bottle2-clock1.png
vgg16,1,419,0,elephant,bottle,419,../stimuli/style-transfer-preprocessed-512/bottle/bottle2-elephant1.png
vgg16,1,420,0,knife,bottle,420,../stimuli/style-transfer-preprocessed-512/bottle/bottle2-knife3.png
vgg16,1,421,0,airplane,bottle,421,../stimuli/style-transfer-preprocessed-512/bottle/bottle3-airplane2.png
vgg16,1,422,0,bear,bottle,422,../stimuli/style-transfer-preprocessed-512/bottle/bottle3-bear2.png
vgg16,1,423,0,bottle,bottle,423,../stimuli/style-transfer-preprocessed-512/bottle/bottle3-bicycle3.png
vgg16,1,424,0,bird,bottle,424,../stimuli/style-transfer-preprocessed-512/bottle/bottle3-bird1.png
vgg16,1,425,0,truck,bottle,425,../stimuli/style-transfer-preprocessed-512/bottle/bottle3-boat3.png
vgg16,1,426,0,bottle,bottle,426,../stimuli/style-transfer-preprocessed-512/bottle/bottle3-bottle3.png
vgg16,1,427,0,cat,bottle,427,../stimuli/style-transfer-preprocessed-512/bottle/bottle3-cat3.png
vgg16,1,428,0,chair,bottle,428,../stimuli/style-transfer-preprocessed-512/bottle/bottle3-chair3.png
vgg16,1,429,0,bottle,bottle,429,../stimuli/style-transfer-preprocessed-512/bottle/bottle3-knife3.png
vgg16,1,430,0,keyboard,bottle,430,../stimuli/style-transfer-preprocessed-512/bottle/bottle4-airplane1.png
vgg16,1,431,0,bicycle,bottle,431,../stimuli/style-transfer-preprocessed-512/bottle/bottle4-bicycle1.png
vgg16,1,432,0,truck,bottle,432,../stimuli/style-transfer-preprocessed-512/bottle/bottle4-car3.png
vgg16,1,433,0,dog,bottle,433,../stimuli/style-transfer-preprocessed-512/bottle/bottle4-dog2.png
vgg16,1,434,0,bottle,bottle,434,../stimuli/style-transfer-preprocessed-512/bottle/bottle4-oven2.png
vgg16,1,435,0,truck,bottle,435,../stimuli/style-transfer-preprocessed-512/bottle/bottle4-truck1.png
vgg16,1,436,0,airplane,bottle,436,../stimuli/style-transfer-preprocessed-512/bottle/bottle5-airplane1.png
vgg16,1,437,0,dog,bottle,437,../stimuli/style-transfer-preprocessed-512/bottle/bottle5-bird3.png
vgg16,1,438,0,boat,bottle,438,../stimuli/style-transfer-preprocessed-512/bottle/bottle5-boat1.png
vgg16,1,439,0,cat,bottle,439,../stimuli/style-transfer-preprocessed-512/bottle/bottle5-cat1.png
vgg16,1,440,0,car,bottle,440,../stimuli/style-transfer-preprocessed-512/bottle/bottle5-chair1.png
vgg16,1,441,0,clock,bottle,441,../stimuli/style-transfer-preprocessed-512/bottle/bottle5-clock3.png
vgg16,1,442,0,elephant,bottle,442,../stimuli/style-transfer-preprocessed-512/bottle/bottle5-elephant1.png
vgg16,1,443,0,bottle,bottle,443,../stimuli/style-transfer-preprocessed-512/bottle/bottle5-keyboard2.png
vgg16,1,444,0,knife,bottle,444,../stimuli/style-transfer-preprocessed-512/bottle/bottle5-knife1.png
vgg16,1,445,0,bottle,bottle,445,../stimuli/style-transfer-preprocessed-512/bottle/bottle5-oven2.png
vgg16,1,446,0,car,bottle,446,../stimuli/style-transfer-preprocessed-512/bottle/bottle5-truck1.png
vgg16,1,447,0,airplane,bottle,447,../stimuli/style-transfer-preprocessed-512/bottle/bottle6-airplane1.png
vgg16,1,448,0,bear,bottle,448,../stimuli/style-transfer-preprocessed-512/bottle/bottle6-bear2.png
vgg16,1,449,0,bottle,bottle,449,../stimuli/style-transfer-preprocessed-512/bottle/bottle6-bicycle3.png
vgg16,1,450,0,bird,bottle,450,../stimuli/style-transfer-preprocessed-512/bottle/bottle6-bird1.png
vgg16,1,451,0,truck,bottle,451,../stimuli/style-transfer-preprocessed-512/bottle/bottle6-boat3.png
vgg16,1,452,0,bottle,bottle,452,../stimuli/style-transfer-preprocessed-512/bottle/bottle6-bottle3.png
vgg16,1,453,0,chair,bottle,453,../stimuli/style-transfer-preprocessed-512/bottle/bottle6-chair2.png
vgg16,1,454,0,dog,bottle,454,../stimuli/style-transfer-preprocessed-512/bottle/bottle6-dog3.png
vgg16,1,455,0,knife,bottle,455,../stimuli/style-transfer-preprocessed-512/bottle/bottle6-knife3.png
vgg16,1,456,0,oven,bottle,456,../stimuli/style-transfer-preprocessed-512/bottle/bottle6-oven3.png
vgg16,1,457,0,airplane,bottle,457,../stimuli/style-transfer-preprocessed-512/bottle/bottle7-airplane3.png
vgg16,1,458,0,cat,bottle,458,../stimuli/style-transfer-preprocessed-512/bottle/bottle7-bear1.png
vgg16,1,459,0,clock,bottle,459,../stimuli/style-transfer-preprocessed-512/bottle/bottle7-boat3.png
vgg16,1,460,0,cat,bottle,460,../stimuli/style-transfer-preprocessed-512/bottle/bottle7-cat2.png
vgg16,1,461,0,clock,bottle,461,../stimuli/style-transfer-preprocessed-512/bottle/bottle7-clock1.png
vgg16,1,462,0,elephant,bottle,462,../stimuli/style-transfer-preprocessed-512/bottle/bottle7-elephant2.png
vgg16,1,463,0,bottle,bottle,463,../stimuli/style-transfer-preprocessed-512/bottle/bottle7-keyboard2.png
vgg16,1,464,0,oven,bottle,464,../stimuli/style-transfer-preprocessed-512/bottle/bottle7-oven2.png
vgg16,1,465,0,truck,bottle,465,../stimuli/style-transfer-preprocessed-512/bottle/bottle7-truck2.png
vgg16,1,466,0,bicycle,bottle,466,../stimuli/style-transfer-preprocessed-512/bottle/bottle8-bicycle1.png
vgg16,1,467,0,bird,bottle,467,../stimuli/style-transfer-preprocessed-512/bottle/bottle8-bird1.png
vgg16,1,468,0,bottle,bottle,468,../stimuli/style-transfer-preprocessed-512/bottle/bottle8-bottle3.png
vgg16,1,469,0,cat,bottle,469,../stimuli/style-transfer-preprocessed-512/bottle/bottle8-dog2.png
vgg16,1,470,0,elephant,bottle,470,../stimuli/style-transfer-preprocessed-512/bottle/bottle8-elephant3.png
vgg16,1,471,0,bottle,bottle,471,../stimuli/style-transfer-preprocessed-512/bottle/bottle8-keyboard3.png
vgg16,1,472,0,knife,bottle,472,../stimuli/style-transfer-preprocessed-512/bottle/bottle8-knife1.png
vgg16,1,473,0,bicycle,bottle,473,../stimuli/style-transfer-preprocessed-512/bottle/bottle9-bicycle1.png
vgg16,1,474,0,bottle,bottle,474,../stimuli/style-transfer-preprocessed-512/bottle/bottle9-bottle1.png
vgg16,1,475,0,car,bottle,475,../stimuli/style-transfer-preprocessed-512/bottle/bottle9-car3.png
vgg16,1,476,0,cat,bottle,476,../stimuli/style-transfer-preprocessed-512/bottle/bottle9-cat2.png
vgg16,1,477,0,elephant,bottle,477,../stimuli/style-transfer-preprocessed-512/bottle/bottle9-elephant2.png
vgg16,1,478,0,bottle,bottle,478,../stimuli/style-transfer-preprocessed-512/bottle/bottle9-keyboard1.png
vgg16,1,479,0,bottle,bottle,479,../stimuli/style-transfer-preprocessed-512/bottle/bottle9-oven2.png
vgg16,1,480,0,car,bottle,480,../stimuli/style-transfer-preprocessed-512/bottle/bottle9-truck1.png
vgg16,1,481,0,airplane,car,481,../stimuli/style-transfer-preprocessed-512/car/car1-airplane1.png
vgg16,1,482,0,car,car,482,../stimuli/style-transfer-preprocessed-512/car/car1-car2.png
vgg16,1,483,0,chair,car,483,../stimuli/style-transfer-preprocessed-512/car/car1-chair3.png
vgg16,1,484,0,car,car,484,../stimuli/style-transfer-preprocessed-512/car/car1-clock2.png
vgg16,1,485,0,dog,car,485,../stimuli/style-transfer-preprocessed-512/car/car1-dog2.png
vgg16,1,486,0,keyboard,car,486,../stimuli/style-transfer-preprocessed-512/car/car1-keyboard2.png
vgg16,1,487,0,truck,car,487,../stimuli/style-transfer-preprocessed-512/car/car1-oven3.png
vgg16,1,488,0,chair,car,488,../stimuli/style-transfer-preprocessed-512/car/car10-bicycle2.png
vgg16,1,489,0,bottle,car,489,../stimuli/style-transfer-preprocessed-512/car/car10-bottle3.png
vgg16,1,490,0,car,car,490,../stimuli/style-transfer-preprocessed-512/car/car10-car1.png
vgg16,1,491,0,car,car,491,../stimuli/style-transfer-preprocessed-512/car/car10-chair1.png
vgg16,1,492,0,dog,car,492,../stimuli/style-transfer-preprocessed-512/car/car10-dog1.png
vgg16,1,493,0,elephant,car,493,../stimuli/style-transfer-preprocessed-512/car/car10-elephant2.png
vgg16,1,494,0,car,car,494,../stimuli/style-transfer-preprocessed-512/car/car10-keyboard2.png
vgg16,1,495,0,oven,car,495,../stimuli/style-transfer-preprocessed-512/car/car2-bird3.png
vgg16,1,496,0,car,car,496,../stimuli/style-transfer-preprocessed-512/car/car2-car3.png
vgg16,1,497,0,cat,car,497,../stimuli/style-transfer-preprocessed-512/car/car2-cat3.png
vgg16,1,498,0,car,car,498,../stimuli/style-transfer-preprocessed-512/car/car2-chair1.png
vgg16,1,499,0,knife,car,499,../stimuli/style-transfer-preprocessed-512/car/car2-knife3.png
vgg16,1,500,0,airplane,car,500,../stimuli/style-transfer-preprocessed-512/car/car3-airplane3.png
vgg16,1,501,0,cat,car,501,../stimuli/style-transfer-preprocessed-512/car/car3-bird2.png
vgg16,1,502,0,boat,car,502,../stimuli/style-transfer-preprocessed-512/car/car3-boat1.png
vgg16,1,503,0,bottle,car,503,../stimuli/style-transfer-preprocessed-512/car/car3-bottle3.png
vgg16,1,504,0,dog,car,504,../stimuli/style-transfer-preprocessed-512/car/car3-dog2.png
vgg16,1,505,0,elephant,car,505,../stimuli/style-transfer-preprocessed-512/car/car3-elephant3.png
vgg16,1,506,0,truck,car,506,../stimuli/style-transfer-preprocessed-512/car/car3-oven3.png
vgg16,1,507,0,car,car,507,../stimuli/style-transfer-preprocessed-512/car/car3-truck1.png
vgg16,1,508,0,bear,car,508,../stimuli/style-transfer-preprocessed-512/car/car4-bear3.png
vgg16,1,509,0,bicycle,car,509,../stimuli/style-transfer-preprocessed-512/car/car4-bicycle3.png
vgg16,1,510,0,bottle,car,510,../stimuli/style-transfer-preprocessed-512/car/car4-bird1.png
vgg16,1,511,0,boat,car,511,../stimuli/style-transfer-preprocessed-512/car/car4-boat1.png
vgg16,1,512,0,bottle,car,512,../stimuli/style-transfer-preprocessed-512/car/car4-bottle1.png
vgg16,1,513,0,car,car,513,../stimuli/style-transfer-preprocessed-512/car/car4-car2.png
vgg16,1,514,0,dog,car,514,../stimuli/style-transfer-preprocessed-512/car/car4-cat3.png
vgg16,1,515,0,clock,car,515,../stimuli/style-transfer-preprocessed-512/car/car4-clock1.png
vgg16,1,516,0,elephant,car,516,../stimuli/style-transfer-preprocessed-512/car/car4-elephant3.png
vgg16,1,517,0,car,car,517,../stimuli/style-transfer-preprocessed-512/car/car4-oven2.png
vgg16,1,518,0,car,car,518,../stimuli/style-transfer-preprocessed-512/car/car5-airplane3.png
vgg16,1,519,0,bear,car,519,../stimuli/style-transfer-preprocessed-512/car/car5-bear3.png
vgg16,1,520,0,bottle,car,520,../stimuli/style-transfer-preprocessed-512/car/car5-bottle1.png
vgg16,1,521,0,dog,car,521,../stimuli/style-transfer-preprocessed-512/car/car5-cat1.png
vgg16,1,522,0,car,car,522,../stimuli/style-transfer-preprocessed-512/car/car5-keyboard3.png
vgg16,1,523,0,truck,car,523,../stimuli/style-transfer-preprocessed-512/car/car5-knife2.png
vgg16,1,524,0,car,car,524,../stimuli/style-transfer-preprocessed-512/car/car5-oven2.png
vgg16,1,525,0,car,car,525,../stimuli/style-transfer-preprocessed-512/car/car5-truck3.png
vgg16,1,526,0,cat,car,526,../stimuli/style-transfer-preprocessed-512/car/car6-bear1.png
vgg16,1,527,0,bicycle,car,527,../stimuli/style-transfer-preprocessed-512/car/car6-bicycle3.png
vgg16,1,528,0,boat,car,528,../stimuli/style-transfer-preprocessed-512/car/car6-boat1.png
vgg16,1,529,0,bottle,car,529,../stimuli/style-transfer-preprocessed-512/car/car6-bottle1.png
vgg16,1,530,0,chair,car,530,../stimuli/style-transfer-preprocessed-512/car/car6-chair3.png
vgg16,1,531,0,elephant,car,531,../stimuli/style-transfer-preprocessed-512/car/car6-elephant3.png
vgg16,1,532,0,car,car,532,../stimuli/style-transfer-preprocessed-512/car/car6-knife1.png
vgg16,1,533,0,truck,car,533,../stimuli/style-transfer-preprocessed-512/car/car6-truck3.png
vgg16,1,534,0,car,car,534,../stimuli/style-transfer-preprocessed-512/car/car7-airplane2.png
vgg16,1,535,0,bear,car,535,../stimuli/style-transfer-preprocessed-512/car/car7-bear1.png
vgg16,1,536,0,knife,car,536,../stimuli/style-transfer-preprocessed-512/car/car7-bird3.png
vgg16,1,537,0,boat,car,537,../stimuli/style-transfer-preprocessed-512/car/car7-boat3.png
vgg16,1,538,0,car,car,538,../stimuli/style-transfer-preprocessed-512/car/car7-car1.png
vgg16,1,539,0,clock,car,539,../stimuli/style-transfer-preprocessed-512/car/car7-clock1.png
vgg16,1,540,0,dog,car,540,../stimuli/style-transfer-preprocessed-512/car/car7-dog3.png
vgg16,1,541,0,elephant,car,541,../stimuli/style-transfer-preprocessed-512/car/car7-elephant3.png
vgg16,1,542,0,bottle,car,542,../stimuli/style-transfer-preprocessed-512/car/car7-keyboard3.png
vgg16,1,543,0,car,car,543,../stimuli/style-transfer-preprocessed-512/car/car7-oven2.png
vgg16,1,544,0,airplane,car,544,../stimuli/style-transfer-preprocessed-512/car/car8-airplane3.png
vgg16,1,545,0,cat,car,545,../stimuli/style-transfer-preprocessed-512/car/car8-bear1.png
vgg16,1,546,0,bottle,car,546,../stimuli/style-transfer-preprocessed-512/car/car8-bicycle2.png
vgg16,1,547,0,truck,car,547,../stimuli/style-transfer-preprocessed-512/car/car8-boat3.png
vgg16,1,548,0,cat,car,548,../stimuli/style-transfer-preprocessed-512/car/car8-cat1.png
vgg16,1,549,0,car,car,549,../stimuli/style-transfer-preprocessed-512/car/car8-chair1.png
vgg16,1,550,0,clock,car,550,../stimuli/style-transfer-preprocessed-512/car/car8-clock2.png
vgg16,1,551,0,dog,car,551,../stimuli/style-transfer-preprocessed-512/car/car8-dog1.png
vgg16,1,552,0,car,car,552,../stimuli/style-transfer-preprocessed-512/car/car8-knife2.png
vgg16,1,553,0,car,car,553,../stimuli/style-transfer-preprocessed-512/car/car8-truck3.png
vgg16,1,554,0,truck,car,554,../stimuli/style-transfer-preprocessed-512/car/car9-bicycle2.png
vgg16,1,555,0,bottle,car,555,../stimuli/style-transfer-preprocessed-512/car/car9-bird1.png
vgg16,1,556,0,cat,car,556,../stimuli/style-transfer-preprocessed-512/car/car9-cat1.png
vgg16,1,557,0,car,car,557,../stimuli/style-transfer-preprocessed-512/car/car9-clock2.png
vgg16,1,558,0,bottle,car,558,../stimuli/style-transfer-preprocessed-512/car/car9-keyboard2.png
vgg16,1,559,0,car,car,559,../stimuli/style-transfer-preprocessed-512/car/car9-knife1.png
vgg16,1,560,0,truck,car,560,../stimuli/style-transfer-preprocessed-512/car/car9-truck3.png
vgg16,1,561,0,airplane,cat,561,../stimuli/style-transfer-preprocessed-512/cat/cat1-airplane1.png
vgg16,1,562,0,cat,cat,562,../stimuli/style-transfer-preprocessed-512/cat/cat1-bird1.png
vgg16,1,563,0,boat,cat,563,../stimuli/style-transfer-preprocessed-512/cat/cat1-boat1.png
vgg16,1,564,0,car,cat,564,../stimuli/style-transfer-preprocessed-512/cat/cat1-car2.png
vgg16,1,565,0,cat,cat,565,../stimuli/style-transfer-preprocessed-512/cat/cat1-cat3.png
vgg16,1,566,0,chair,cat,566,../stimuli/style-transfer-preprocessed-512/cat/cat1-chair2.png
vgg16,1,567,0,dog,cat,567,../stimuli/style-transfer-preprocessed-512/cat/cat1-dog1.png
vgg16,1,568,0,bottle,cat,568,../stimuli/style-transfer-preprocessed-512/cat/cat1-keyboard3.png
vgg16,1,569,0,truck,cat,569,../stimuli/style-transfer-preprocessed-512/cat/cat1-oven1.png
vgg16,1,570,0,airplane,cat,570,../stimuli/style-transfer-preprocessed-512/cat/cat10-airplane3.png
vgg16,1,571,0,bear,cat,571,../stimuli/style-transfer-preprocessed-512/cat/cat10-bear1.png
vgg16,1,572,0,bicycle,cat,572,../stimuli/style-transfer-preprocessed-512/cat/cat10-bicycle1.png
vgg16,1,573,0,cat,cat,573,../stimuli/style-transfer-preprocessed-512/cat/cat10-bird2.png
vgg16,1,574,0,bottle,cat,574,../stimuli/style-transfer-preprocessed-512/cat/cat10-bottle1.png
vgg16,1,575,0,clock,cat,575,../stimuli/style-transfer-preprocessed-512/cat/cat10-clock1.png
vgg16,1,576,0,elephant,cat,576,../stimuli/style-transfer-preprocessed-512/cat/cat10-elephant3.png
vgg16,1,577,0,keyboard,cat,577,../stimuli/style-transfer-preprocessed-512/cat/cat10-keyboard1.png
vgg16,1,578,0,oven,cat,578,../stimuli/style-transfer-preprocessed-512/cat/cat10-oven2.png
vgg16,1,579,0,boat,cat,579,../stimuli/style-transfer-preprocessed-512/cat/cat2-boat2.png
vgg16,1,580,0,bottle,cat,580,../stimuli/style-transfer-preprocessed-512/cat/cat2-bottle3.png
vgg16,1,581,0,car,cat,581,../stimuli/style-transfer-preprocessed-512/cat/cat2-car3.png
vgg16,1,582,0,cat,cat,582,../stimuli/style-transfer-preprocessed-512/cat/cat2-cat1.png
vgg16,1,583,0,elephant,cat,583,../stimuli/style-transfer-preprocessed-512/cat/cat2-elephant1.png
vgg16,1,584,0,knife,cat,584,../stimuli/style-transfer-preprocessed-512/cat/cat2-knife3.png
vgg16,1,585,0,car,cat,585,../stimuli/style-transfer-preprocessed-512/cat/cat2-truck3.png
vgg16,1,586,0,cat,cat,586,../stimuli/style-transfer-preprocessed-512/cat/cat3-bear2.png
vgg16,1,587,0,bicycle,cat,587,../stimuli/style-transfer-preprocessed-512/cat/cat3-bicycle1.png
vgg16,1,588,0,cat,cat,588,../stimuli/style-transfer-preprocessed-512/cat/cat3-cat1.png
vgg16,1,589,0,elephant,cat,589,../stimuli/style-transfer-preprocessed-512/cat/cat3-elephant2.png
vgg16,1,590,0,chair,cat,590,../stimuli/style-transfer-preprocessed-512/cat/cat3-oven2.png
vgg16,1,591,0,truck,cat,591,../stimuli/style-transfer-preprocessed-512/cat/cat3-truck3.png
vgg16,1,592,0,keyboard,cat,592,../stimuli/style-transfer-preprocessed-512/cat/cat4-airplane1.png
vgg16,1,593,0,cat,cat,593,../stimuli/style-transfer-preprocessed-512/cat/cat4-bird2.png
vgg16,1,594,0,car,cat,594,../stimuli/style-transfer-preprocessed-512/cat/cat4-car2.png
vgg16,1,595,0,cat,cat,595,../stimuli/style-transfer-preprocessed-512/cat/cat4-cat3.png
vgg16,1,596,0,chair,cat,596,../stimuli/style-transfer-preprocessed-512/cat/cat4-chair2.png
vgg16,1,597,0,clock,cat,597,../stimuli/style-transfer-preprocessed-512/cat/cat4-clock2.png
vgg16,1,598,0,dog,cat,598,../stimuli/style-transfer-preprocessed-512/cat/cat4-dog3.png
vgg16,1,599,0,bottle,cat,599,../stimuli/style-transfer-preprocessed-512/cat/cat4-keyboard2.png
vgg16,1,600,0,knife,cat,600,../stimuli/style-transfer-preprocessed-512/cat/cat4-knife1.png
vgg16,1,601,0,oven,cat,601,../stimuli/style-transfer-preprocessed-512/cat/cat4-oven1.png
vgg16,1,602,0,truck,cat,602,../stimuli/style-transfer-preprocessed-512/cat/cat4-truck3.png
vgg16,1,603,0,airplane,cat,603,../stimuli/style-transfer-preprocessed-512/cat/cat5-airplane2.png
vgg16,1,604,0,cat,cat,604,../stimuli/style-transfer-preprocessed-512/cat/cat5-bear2.png
vgg16,1,605,0,bottle,cat,605,../stimuli/style-transfer-preprocessed-512/cat/cat5-bicycle3.png
vgg16,1,606,0,boat,cat,606,../stimuli/style-transfer-preprocessed-512/cat/cat5-boat1.png
vgg16,1,607,0,bottle,cat,607,../stimuli/style-transfer-preprocessed-512/cat/cat5-bottle1.png
vgg16,1,608,0,car,cat,608,../stimuli/style-transfer-preprocessed-512/cat/cat5-car2.png
vgg16,1,609,0,chair,cat,609,../stimuli/style-transfer-preprocessed-512/cat/cat5-chair3.png
vgg16,1,610,0,cat,cat,610,../stimuli/style-transfer-preprocessed-512/cat/cat5-dog3.png
vgg16,1,611,0,elephant,cat,611,../stimuli/style-transfer-preprocessed-512/cat/cat5-elephant2.png
vgg16,1,612,0,bottle,cat,612,../stimuli/style-transfer-preprocessed-512/cat/cat5-keyboard3.png
vgg16,1,613,0,knife,cat,613,../stimuli/style-transfer-preprocessed-512/cat/cat5-knife2.png
vgg16,1,614,0,cat,cat,614,../stimuli/style-transfer-preprocessed-512/cat/cat6-bear1.png
vgg16,1,615,0,chair,cat,615,../stimuli/style-transfer-preprocessed-512/cat/cat6-chair3.png
vgg16,1,616,0,clock,cat,616,../stimuli/style-transfer-preprocessed-512/cat/cat6-clock3.png
vgg16,1,617,0,bottle,cat,617,../stimuli/style-transfer-preprocessed-512/cat/cat6-keyboard3.png
vgg16,1,618,0,truck,cat,618,../stimuli/style-transfer-preprocessed-512/cat/cat6-oven1.png
vgg16,1,619,0,airplane,cat,619,../stimuli/style-transfer-preprocessed-512/cat/cat7-airplane2.png
vgg16,1,620,0,boat,cat,620,../stimuli/style-transfer-preprocessed-512/cat/cat7-boat3.png
vgg16,1,621,0,bottle,cat,621,../stimuli/style-transfer-preprocessed-512/cat/cat7-bottle1.png
vgg16,1,622,0,clock,cat,622,../stimuli/style-transfer-preprocessed-512/cat/cat7-clock3.png
vgg16,1,623,0,cat,cat,623,../stimuli/style-transfer-preprocessed-512/cat/cat7-dog3.png
vgg16,1,624,0,elephant,cat,624,../stimuli/style-transfer-preprocessed-512/cat/cat7-elephant1.png
vgg16,1,625,0,knife,cat,625,../stimuli/style-transfer-preprocessed-512/cat/cat7-knife2.png
vgg16,1,626,0,car,cat,626,../stimuli/style-transfer-preprocessed-512/cat/cat7-truck2.png
vgg16,1,627,0,cat,cat,627,../stimuli/style-transfer-preprocessed-512/cat/cat8-bear1.png
vgg16,1,628,0,bicycle,cat,628,../stimuli/style-transfer-preprocessed-512/cat/cat8-bicycle3.png
vgg16,1,629,0,bird,cat,629,../stimuli/style-transfer-preprocessed-512/cat/cat8-bird2.png
vgg16,1,630,0,car,cat,630,../stimuli/style-transfer-preprocessed-512/cat/cat8-car2.png
vgg16,1,631,0,bicycle,cat,631,../stimuli/style-transfer-preprocessed-512/cat/cat9-bicycle1.png
vgg16,1,632,0,dog,cat,632,../stimuli/style-transfer-preprocessed-512/cat/cat9-bird3.png
vgg16,1,633,0,boat,cat,633,../stimuli/style-transfer-preprocessed-512/cat/cat9-boat2.png
vgg16,1,634,0,bottle,cat,634,../stimuli/style-transfer-preprocessed-512/cat/cat9-bottle2.png
vgg16,1,635,0,cat,cat,635,../stimuli/style-transfer-preprocessed-512/cat/cat9-cat3.png
vgg16,1,636,0,chair,cat,636,../stimuli/style-transfer-preprocessed-512/cat/cat9-chair2.png
vgg16,1,637,0,clock,cat,637,../stimuli/style-transfer-preprocessed-512/cat/cat9-clock2.png
vgg16,1,638,0,dog,cat,638,../stimuli/style-transfer-preprocessed-512/cat/cat9-dog2.png
vgg16,1,639,0,knife,cat,639,../stimuli/style-transfer-preprocessed-512/cat/cat9-knife2.png
vgg16,1,640,0,car,cat,640,../stimuli/style-transfer-preprocessed-512/cat/cat9-truck1.png
vgg16,1,641,0,bottle,chair,641,../stimuli/style-transfer-preprocessed-512/chair/chair1-airplane2.png
vgg16,1,642,0,cat,chair,642,../stimuli/style-transfer-preprocessed-512/chair/chair1-bear1.png
vgg16,1,643,0,cat,chair,643,../stimuli/style-transfer-preprocessed-512/chair/chair1-cat3.png
vgg16,1,644,0,chair,chair,644,../stimuli/style-transfer-preprocessed-512/chair/chair1-chair1.png
vgg16,1,645,0,clock,chair,645,../stimuli/style-transfer-preprocessed-512/chair/chair1-clock2.png
vgg16,1,646,0,dog,chair,646,../stimuli/style-transfer-preprocessed-512/chair/chair1-dog1.png
vgg16,1,647,0,elephant,chair,647,../stimuli/style-transfer-preprocessed-512/chair/chair1-elephant1.png
vgg16,1,648,0,oven,chair,648,../stimuli/style-transfer-preprocessed-512/chair/chair1-oven3.png
vgg16,1,649,0,truck,chair,649,../stimuli/style-transfer-preprocessed-512/chair/chair1-truck3.png
vgg16,1,650,0,airplane,chair,650,../stimuli/style-transfer-preprocessed-512/chair/chair10-airplane2.png
vgg16,1,651,0,bicycle,chair,651,../stimuli/style-transfer-preprocessed-512/chair/chair10-bicycle1.png
vgg16,1,652,0,oven,chair,652,../stimuli/style-transfer-preprocessed-512/chair/chair10-bird3.png
vgg16,1,653,0,bottle,chair,653,../stimuli/style-transfer-preprocessed-512/chair/chair10-bottle3.png
vgg16,1,654,0,car,chair,654,../stimuli/style-transfer-preprocessed-512/chair/chair10-car2.png
vgg16,1,655,0,cat,chair,655,../stimuli/style-transfer-preprocessed-512/chair/chair10-cat1.png
vgg16,1,656,0,clock,chair,656,../stimuli/style-transfer-preprocessed-512/chair/chair10-clock1.png
vgg16,1,657,0,dog,chair,657,../stimuli/style-transfer-preprocessed-512/chair/chair10-dog1.png
vgg16,1,658,0,oven,chair,658,../stimuli/style-transfer-preprocessed-512/chair/chair10-oven1.png
vgg16,1,659,0,bear,chair,659,../stimuli/style-transfer-preprocessed-512/chair/chair2-bear2.png
vgg16,1,660,0,truck,chair,660,../stimuli/style-transfer-preprocessed-512/chair/chair2-boat1.png
vgg16,1,661,0,bottle,chair,661,../stimuli/style-transfer-preprocessed-512/chair/chair2-keyboard2.png
vgg16,1,662,0,knife,chair,662,../stimuli/style-transfer-preprocessed-512/chair/chair2-knife1.png
vgg16,1,663,0,airplane,chair,663,../stimuli/style-transfer-preprocessed-512/chair/chair3-airplane2.png
vgg16,1,664,0,chair,chair,664,../stimuli/style-transfer-preprocessed-512/chair/chair3-bicycle3.png
vgg16,1,665,0,bottle,chair,665,../stimuli/style-transfer-preprocessed-512/chair/chair3-bottle3.png
vgg16,1,666,0,car,chair,666,../stimuli/style-transfer-preprocessed-512/chair/chair3-car3.png
vgg16,1,667,0,dog,chair,667,../stimuli/style-transfer-preprocessed-512/chair/chair3-dog2.png
vgg16,1,668,0,knife,chair,668,../stimuli/style-transfer-preprocessed-512/chair/chair3-knife1.png
vgg16,1,669,0,bear,chair,669,../stimuli/style-transfer-preprocessed-512/chair/chair4-bear2.png
vgg16,1,670,0,cat,chair,670,../stimuli/style-transfer-preprocessed-512/chair/chair4-cat2.png
vgg16,1,671,0,chair,chair,671,../stimuli/style-transfer-preprocessed-512/chair/chair4-chair3.png
vgg16,1,672,0,keyboard,chair,672,../stimuli/style-transfer-preprocessed-512/chair/chair4-keyboard2.png
vgg16,1,673,0,chair,chair,673,../stimuli/style-transfer-preprocessed-512/chair/chair4-oven2.png
vgg16,1,674,0,truck,chair,674,../stimuli/style-transfer-preprocessed-512/chair/chair4-truck2.png
vgg16,1,675,0,bicycle,chair,675,../stimuli/style-transfer-preprocessed-512/chair/chair5-bicycle1.png
vgg16,1,676,0,bird,chair,676,../stimuli/style-transfer-preprocessed-512/chair/chair5-bird1.png
vgg16,1,677,0,truck,chair,677,../stimuli/style-transfer-preprocessed-512/chair/chair5-boat3.png
vgg16,1,678,0,bottle,chair,678,../stimuli/style-transfer-preprocessed-512/chair/chair5-bottle3.png
vgg16,1,679,0,car,chair,679,../stimuli/style-transfer-preprocessed-512/chair/chair5-car1.png
vgg16,1,680,0,elephant,chair,680,../stimuli/style-transfer-preprocessed-512/chair/chair5-cat3.png
vgg16,1,681,0,car,chair,681,../stimuli/style-transfer-preprocessed-512/chair/chair5-clock2.png
vgg16,1,682,0,keyboard,chair,682,../stimuli/style-transfer-preprocessed-512/chair/chair5-keyboard2.png
vgg16,1,683,0,knife,chair,683,../stimuli/style-transfer-preprocessed-512/chair/chair5-knife3.png
vgg16,1,684,0,oven,chair,684,../stimuli/style-transfer-preprocessed-512/chair/chair5-oven2.png
vgg16,1,685,0,car,chair,685,../stimuli/style-transfer-preprocessed-512/chair/chair5-truck3.png
vgg16,1,686,0,bird,chair,686,../stimuli/style-transfer-preprocessed-512/chair/chair6-bird2.png
vgg16,1,687,0,dog,chair,687,../stimuli/style-transfer-preprocessed-512/chair/chair6-dog1.png
vgg16,1,688,0,elephant,chair,688,../stimuli/style-transfer-preprocessed-512/chair/chair6-elephant2.png
vgg16,1,689,0,truck,chair,689,../stimuli/style-transfer-preprocessed-512/chair/chair6-truck2.png
vgg16,1,690,0,airplane,chair,690,../stimuli/style-transfer-preprocessed-512/chair/chair7-airplane1.png
vgg16,1,691,0,bird,chair,691,../stimuli/style-transfer-preprocessed-512/chair/chair7-bird1.png
vgg16,1,692,0,boat,chair,692,../stimuli/style-transfer-preprocessed-512/chair/chair7-boat3.png
vgg16,1,693,0,bottle,chair,693,../stimuli/style-transfer-preprocessed-512/chair/chair7-bottle1.png
vgg16,1,694,0,car,chair,694,../stimuli/style-transfer-preprocessed-512/chair/chair7-car2.png
vgg16,1,695,0,cat,chair,695,../stimuli/style-transfer-preprocessed-512/chair/chair7-cat1.png
vgg16,1,696,0,car,chair,696,../stimuli/style-transfer-preprocessed-512/chair/chair7-chair1.png
vgg16,1,697,0,clock,chair,697,../stimuli/style-transfer-preprocessed-512/chair/chair7-clock3.png
vgg16,1,698,0,elephant,chair,698,../stimuli/style-transfer-preprocessed-512/chair/chair7-elephant1.png
vgg16,1,699,0,knife,chair,699,../stimuli/style-transfer-preprocessed-512/chair/chair7-knife2.png
vgg16,1,700,0,truck,chair,700,../stimuli/style-transfer-preprocessed-512/chair/chair7-truck3.png
vgg16,1,701,0,keyboard,chair,701,../stimuli/style-transfer-preprocessed-512/chair/chair8-airplane1.png
vgg16,1,702,0,cat,chair,702,../stimuli/style-transfer-preprocessed-512/chair/chair8-bear1.png
vgg16,1,703,0,chair,chair,703,../stimuli/style-transfer-preprocessed-512/chair/chair8-bicycle3.png
vgg16,1,704,0,boat,chair,704,../stimuli/style-transfer-preprocessed-512/chair/chair8-boat1.png
vgg16,1,705,0,car,chair,705,../stimuli/style-transfer-preprocessed-512/chair/chair8-car1.png
vgg16,1,706,0,chair,chair,706,../stimuli/style-transfer-preprocessed-512/chair/chair8-chair3.png
vgg16,1,707,0,clock,chair,707,../stimuli/style-transfer-preprocessed-512/chair/chair8-clock3.png
vgg16,1,708,0,elephant,chair,708,../stimuli/style-transfer-preprocessed-512/chair/chair8-elephant1.png
vgg16,1,709,0,bottle,chair,709,../stimuli/style-transfer-preprocessed-512/chair/chair8-keyboard3.png
vgg16,1,710,0,truck,chair,710,../stimuli/style-transfer-preprocessed-512/chair/chair8-knife2.png
vgg16,1,711,0,oven,chair,711,../stimuli/style-transfer-preprocessed-512/chair/chair8-oven1.png
vgg16,1,712,0,bear,chair,712,../stimuli/style-transfer-preprocessed-512/chair/chair9-bear1.png
vgg16,1,713,0,bicycle,chair,713,../stimuli/style-transfer-preprocessed-512/chair/chair9-bicycle3.png
vgg16,1,714,0,clock,chair,714,../stimuli/style-transfer-preprocessed-512/chair/chair9-bird3.png
vgg16,1,715,0,boat,chair,715,../stimuli/style-transfer-preprocessed-512/chair/chair9-boat2.png
vgg16,1,716,0,bottle,chair,716,../stimuli/style-transfer-preprocessed-512/chair/chair9-bottle3.png
vgg16,1,717,0,chair,chair,717,../stimuli/style-transfer-preprocessed-512/chair/chair9-chair3.png
vgg16,1,718,0,dog,chair,718,../stimuli/style-transfer-preprocessed-512/chair/chair9-dog2.png
vgg16,1,719,0,elephant,chair,719,../stimuli/style-transfer-preprocessed-512/chair/chair9-elephant1.png
vgg16,1,720,0,bottle,chair,720,../stimuli/style-transfer-preprocessed-512/chair/chair9-keyboard2.png
vgg16,1,721,0,bear,clock,721,../stimuli/style-transfer-preprocessed-512/clock/clock1-bear1.png
vgg16,1,722,0,boat,clock,722,../stimuli/style-transfer-preprocessed-512/clock/clock1-boat3.png
vgg16,1,723,0,car,clock,723,../stimuli/style-transfer-preprocessed-512/clock/clock1-car1.png
vgg16,1,724,0,clock,clock,724,../stimuli/style-transfer-preprocessed-512/clock/clock1-clock2.png
vgg16,1,725,0,dog,clock,725,../stimuli/style-transfer-preprocessed-512/clock/clock1-dog2.png
vgg16,1,726,0,elephant,clock,726,../stimuli/style-transfer-preprocessed-512/clock/clock1-elephant2.png
vgg16,1,727,0,car,clock,727,../stimuli/style-transfer-preprocessed-512/clock/clock1-truck3.png
vgg16,1,728,0,clock,clock,728,../stimuli/style-transfer-preprocessed-512/clock/clock10-airplane1.png
vgg16,1,729,0,oven,clock,729,../stimuli/style-transfer-preprocessed-512/clock/clock10-bird3.png
vgg16,1,730,0,boat,clock,730,../stimuli/style-transfer-preprocessed-512/clock/clock10-boat2.png
vgg16,1,731,0,bottle,clock,731,../stimuli/style-transfer-preprocessed-512/clock/clock10-bottle1.png
vgg16,1,732,0,cat,clock,732,../stimuli/style-transfer-preprocessed-512/clock/clock10-cat1.png
vgg16,1,733,0,clock,clock,733,../stimuli/style-transfer-preprocessed-512/clock/clock10-clock3.png
vgg16,1,734,0,dog,clock,734,../stimuli/style-transfer-preprocessed-512/clock/clock10-dog3.png
vgg16,1,735,0,knife,clock,735,../stimuli/style-transfer-preprocessed-512/clock/clock10-knife3.png
vgg16,1,736,0,chair,clock,736,../stimuli/style-transfer-preprocessed-512/clock/clock10-oven2.png
vgg16,1,737,0,car,clock,737,../stimuli/style-transfer-preprocessed-512/clock/clock10-truck2.png
vgg16,1,738,0,cat,clock,738,../stimuli/style-transfer-preprocessed-512/clock/clock2-bear2.png
vgg16,1,739,0,bicycle,clock,739,../stimuli/style-transfer-preprocessed-512/clock/clock2-bicycle1.png
vgg16,1,740,0,clock,clock,740,../stimuli/style-transfer-preprocessed-512/clock/clock2-bottle3.png
vgg16,1,741,0,clock,clock,741,../stimuli/style-transfer-preprocessed-512/clock/clock2-clock3.png
vgg16,1,742,0,dog,clock,742,../stimuli/style-transfer-preprocessed-512/clock/clock2-dog1.png
vgg16,1,743,0,elephant,clock,743,../stimuli/style-transfer-preprocessed-512/clock/clock2-elephant2.png
vgg16,1,744,0,clock,clock,744,../stimuli/style-transfer-preprocessed-512/clock/clock2-knife1.png
vgg16,1,745,0,bear,clock,745,../stimuli/style-transfer-preprocessed-512/clock/clock3-bear3.png
vgg16,1,746,0,clock,clock,746,../stimuli/style-transfer-preprocessed-512/clock/clock3-bicycle2.png
vgg16,1,747,0,clock,clock,747,../stimuli/style-transfer-preprocessed-512/clock/clock3-bird1.png
vgg16,1,748,0,car,clock,748,../stimuli/style-transfer-preprocessed-512/clock/clock3-car2.png
vgg16,1,749,0,clock,clock,749,../stimuli/style-transfer-preprocessed-512/clock/clock3-cat1.png
vgg16,1,750,0,clock,clock,750,../stimuli/style-transfer-preprocessed-512/clock/clock3-dog2.png
vgg16,1,751,0,elephant,clock,751,../stimuli/style-transfer-preprocessed-512/clock/clock3-elephant3.png
vgg16,1,752,0,clock,clock,752,../stimuli/style-transfer-preprocessed-512/clock/clock3-keyboard3.png
vgg16,1,753,0,clock,clock,753,../stimuli/style-transfer-preprocessed-512/clock/clock4-airplane1.png
vgg16,1,754,0,clock,clock,754,../stimuli/style-transfer-preprocessed-512/clock/clock4-bird3.png
vgg16,1,755,0,boat,clock,755,../stimuli/style-transfer-preprocessed-512/clock/clock4-boat3.png
vgg16,1,756,0,bottle,clock,756,../stimuli/style-transfer-preprocessed-512/clock/clock4-bottle3.png
vgg16,1,757,0,car,clock,757,../stimuli/style-transfer-preprocessed-512/clock/clock4-car2.png
vgg16,1,758,0,car,clock,758,../stimuli/style-transfer-preprocessed-512/clock/clock4-chair1.png
vgg16,1,759,0,elephant,clock,759,../stimuli/style-transfer-preprocessed-512/clock/clock4-elephant2.png
vgg16,1,760,0,clock,clock,760,../stimuli/style-transfer-preprocessed-512/clock/clock4-knife1.png
vgg16,1,761,0,clock,clock,761,../stimuli/style-transfer-preprocessed-512/clock/clock4-oven1.png
vgg16,1,762,0,clock,clock,762,../stimuli/style-transfer-preprocessed-512/clock/clock5-airplane1.png
vgg16,1,763,0,bicycle,clock,763,../stimuli/style-transfer-preprocessed-512/clock/clock5-bicycle1.png
vgg16,1,764,0,chair,clock,764,../stimuli/style-transfer-preprocessed-512/clock/clock5-chair3.png
vgg16,1,765,0,clock,clock,765,../stimuli/style-transfer-preprocessed-512/clock/clock5-clock2.png
vgg16,1,766,0,elephant,clock,766,../stimuli/style-transfer-preprocessed-512/clock/clock5-elephant2.png
vgg16,1,767,0,clock,clock,767,../stimuli/style-transfer-preprocessed-512/clock/clock5-keyboard1.png
vgg16,1,768,0,bottle,clock,768,../stimuli/style-transfer-preprocessed-512/clock/clock5-oven1.png
vgg16,1,769,0,bicycle,clock,769,../stimuli/style-transfer-preprocessed-512/clock/clock6-bicycle1.png
vgg16,1,770,0,clock,clock,770,../stimuli/style-transfer-preprocessed-512/clock/clock6-bird3.png
vgg16,1,771,0,bottle,clock,771,../stimuli/style-transfer-preprocessed-512/clock/clock6-bottle1.png
vgg16,1,772,0,car,clock,772,../stimuli/style-transfer-preprocessed-512/clock/clock6-car2.png
vgg16,1,773,0,truck,clock,773,../stimuli/style-transfer-preprocessed-512/clock/clock6-chair3.png
vgg16,1,774,0,clock,clock,774,../stimuli/style-transfer-preprocessed-512/clock/clock6-clock2.png
vgg16,1,775,0,clock,clock,775,../stimuli/style-transfer-preprocessed-512/clock/clock6-knife2.png
vgg16,1,776,0,oven,clock,776,../stimuli/style-transfer-preprocessed-512/clock/clock6-oven1.png
vgg16,1,777,0,car,clock,777,../stimuli/style-transfer-preprocessed-512/clock/clock6-truck3.png
vgg16,1,778,0,bottle,clock,778,../stimuli/style-transfer-preprocessed-512/clock/clock7-bear2.png
vgg16,1,779,0,bicycle,clock,779,../stimuli/style-transfer-preprocessed-512/clock/clock7-bicycle1.png
vgg16,1,780,0,boat,clock,780,../stimuli/style-transfer-preprocessed-512/clock/clock7-boat3.png
vgg16,1,781,0,bottle,clock,781,../stimuli/style-transfer-preprocessed-512/clock/clock7-bottle2.png
vgg16,1,782,0,boat,clock,782,../stimuli/style-transfer-preprocessed-512/clock/clock7-car1.png
vgg16,1,783,0,cat,clock,783,../stimuli/style-transfer-preprocessed-512/clock/clock7-cat2.png
vgg16,1,784,0,clock,clock,784,../stimuli/style-transfer-preprocessed-512/clock/clock7-dog2.png
vgg16,1,785,0,bottle,clock,785,../stimuli/style-transfer-preprocessed-512/clock/clock7-keyboard2.png
vgg16,1,786,0,car,clock,786,../stimuli/style-transfer-preprocessed-512/clock/clock7-truck3.png
vgg16,1,787,0,car,clock,787,../stimuli/style-transfer-preprocessed-512/clock/clock8-airplane2.png
vgg16,1,788,0,bear,clock,788,../stimuli/style-transfer-preprocessed-512/clock/clock8-bear2.png
vgg16,1,789,0,boat,clock,789,../stimuli/style-transfer-preprocessed-512/clock/clock8-boat1.png
vgg16,1,790,0,cat,clock,790,../stimuli/style-transfer-preprocessed-512/clock/clock8-cat1.png
vgg16,1,791,0,chair,clock,791,../stimuli/style-transfer-preprocessed-512/clock/clock8-chair2.png
vgg16,1,792,0,clock,clock,792,../stimuli/style-transfer-preprocessed-512/clock/clock8-keyboard1.png
vgg16,1,793,0,clock,clock,793,../stimuli/style-transfer-preprocessed-512/clock/clock8-knife1.png
vgg16,1,794,0,truck,clock,794,../stimuli/style-transfer-preprocessed-512/clock/clock8-oven3.png
vgg16,1,795,0,car,clock,795,../stimuli/style-transfer-preprocessed-512/clock/clock8-truck2.png
vgg16,1,796,0,clock,clock,796,../stimuli/style-transfer-preprocessed-512/clock/clock9-airplane1.png
vgg16,1,797,0,clock,clock,797,../stimuli/style-transfer-preprocessed-512/clock/clock9-bird2.png
vgg16,1,798,0,cat,clock,798,../stimuli/style-transfer-preprocessed-512/clock/clock9-cat1.png
vgg16,1,799,0,chair,clock,799,../stimuli/style-transfer-preprocessed-512/clock/clock9-chair3.png
vgg16,1,800,0,car,clock,800,../stimuli/style-transfer-preprocessed-512/clock/clock9-keyboard2.png
vgg16,1,801,0,car,dog,801,../stimuli/style-transfer-preprocessed-512/dog/dog1-airplane3.png
vgg16,1,802,0,bear,dog,802,../stimuli/style-transfer-preprocessed-512/dog/dog1-bear1.png
vgg16,1,803,0,bird,dog,803,../stimuli/style-transfer-preprocessed-512/dog/dog1-bird1.png
vgg16,1,804,0,clock,dog,804,../stimuli/style-transfer-preprocessed-512/dog/dog1-boat3.png
vgg16,1,805,0,car,dog,805,../stimuli/style-transfer-preprocessed-512/dog/dog1-car2.png
vgg16,1,806,0,dog,dog,806,../stimuli/style-transfer-preprocessed-512/dog/dog1-cat3.png
vgg16,1,807,0,car,dog,807,../stimuli/style-transfer-preprocessed-512/dog/dog1-chair1.png
vgg16,1,808,0,dog,dog,808,../stimuli/style-transfer-preprocessed-512/dog/dog1-dog2.png
vgg16,1,809,0,knife,dog,809,../stimuli/style-transfer-preprocessed-512/dog/dog1-knife3.png
vgg16,1,810,0,keyboard,dog,810,../stimuli/style-transfer-preprocessed-512/dog/dog10-airplane1.png
vgg16,1,811,0,bicycle,dog,811,../stimuli/style-transfer-preprocessed-512/dog/dog10-bicycle1.png
vgg16,1,812,0,bottle,dog,812,../stimuli/style-transfer-preprocessed-512/dog/dog10-bottle1.png
vgg16,1,813,0,car,dog,813,../stimuli/style-transfer-preprocessed-512/dog/dog10-car3.png
vgg16,1,814,0,clock,dog,814,../stimuli/style-transfer-preprocessed-512/dog/dog10-clock1.png
vgg16,1,815,0,dog,dog,815,../stimuli/style-transfer-preprocessed-512/dog/dog10-dog1.png
vgg16,1,816,0,elephant,dog,816,../stimuli/style-transfer-preprocessed-512/dog/dog10-elephant1.png
vgg16,1,817,0,bottle,dog,817,../stimuli/style-transfer-preprocessed-512/dog/dog10-keyboard2.png
vgg16,1,818,0,oven,dog,818,../stimuli/style-transfer-preprocessed-512/dog/dog10-oven2.png
vgg16,1,819,0,car,dog,819,../stimuli/style-transfer-preprocessed-512/dog/dog10-truck2.png
vgg16,1,820,0,car,dog,820,../stimuli/style-transfer-preprocessed-512/dog/dog2-airplane2.png
vgg16,1,821,0,bicycle,dog,821,../stimuli/style-transfer-preprocessed-512/dog/dog2-bicycle2.png
vgg16,1,822,0,bottle,dog,822,../stimuli/style-transfer-preprocessed-512/dog/dog2-bottle2.png
vgg16,1,823,0,dog,dog,823,../stimuli/style-transfer-preprocessed-512/dog/dog2-cat1.png
vgg16,1,824,0,dog,dog,824,../stimuli/style-transfer-preprocessed-512/dog/dog2-dog3.png
vgg16,1,825,0,knife,dog,825,../stimuli/style-transfer-preprocessed-512/dog/dog2-knife3.png
vgg16,1,826,0,bear,dog,826,../stimuli/style-transfer-preprocessed-512/dog/dog3-bear3.png
vgg16,1,827,0,dog,dog,827,../stimuli/style-transfer-preprocessed-512/dog/dog3-bird2.png
vgg16,1,828,0,boat,dog,828,../stimuli/style-transfer-preprocessed-512/dog/dog3-boat1.png
vgg16,1,829,0,clock,dog,829,../stimuli/style-transfer-preprocessed-512/dog/dog3-clock1.png
vgg16,1,830,0,dog,dog,830,../stimuli/style-transfer-preprocessed-512/dog/dog3-dog1.png
vgg16,1,831,0,elephant,dog,831,../stimuli/style-transfer-preprocessed-512/dog/dog3-elephant2.png
vgg16,1,832,0,knife,dog,832,../stimuli/style-transfer-preprocessed-512/dog/dog3-keyboard1.png
vgg16,1,833,0,knife,dog,833,../stimuli/style-transfer-preprocessed-512/dog/dog3-knife3.png
vgg16,1,834,0,truck,dog,834,../stimuli/style-transfer-preprocessed-512/dog/dog3-truck2.png
vgg16,1,835,0,airplane,dog,835,../stimuli/style-transfer-preprocessed-512/dog/dog4-airplane3.png
vgg16,1,836,0,bicycle,dog,836,../stimuli/style-transfer-preprocessed-512/dog/dog4-bicycle1.png
vgg16,1,837,0,bird,dog,837,../stimuli/style-transfer-preprocessed-512/dog/dog4-bird1.png
vgg16,1,838,0,bottle,dog,838,../stimuli/style-transfer-preprocessed-512/dog/dog4-bottle2.png
vgg16,1,839,0,cat,dog,839,../stimuli/style-transfer-preprocessed-512/dog/dog4-cat3.png
vgg16,1,840,0,car,dog,840,../stimuli/style-transfer-preprocessed-512/dog/dog4-chair1.png
vgg16,1,841,0,clock,dog,841,../stimuli/style-transfer-preprocessed-512/dog/dog4-clock1.png
vgg16,1,842,0,elephant,dog,842,../stimuli/style-transfer-preprocessed-512/dog/dog4-elephant2.png
vgg16,1,843,0,bottle,dog,843,../stimuli/style-transfer-preprocessed-512/dog/dog4-keyboard2.png
vgg16,1,844,0,bottle,dog,844,../stimuli/style-transfer-preprocessed-512/dog/dog4-oven1.png
vgg16,1,845,0,car,dog,845,../stimuli/style-transfer-preprocessed-512/dog/dog4-truck2.png
vgg16,1,846,0,bear,dog,846,../stimuli/style-transfer-preprocessed-512/dog/dog5-bear3.png
vgg16,1,847,0,truck,dog,847,../stimuli/style-transfer-preprocessed-512/dog/dog5-boat3.png
vgg16,1,848,0,car,dog,848,../stimuli/style-transfer-preprocessed-512/dog/dog5-car3.png
vgg16,1,849,0,elephant,dog,849,../stimuli/style-transfer-preprocessed-512/dog/dog5-elephant1.png
vgg16,1,850,0,knife,dog,850,../stimuli/style-transfer-preprocessed-512/dog/dog5-knife2.png
vgg16,1,851,0,oven,dog,851,../stimuli/style-transfer-preprocessed-512/dog/dog5-oven1.png
vgg16,1,852,0,truck,dog,852,../stimuli/style-transfer-preprocessed-512/dog/dog5-truck2.png
vgg16,1,853,0,bicycle,dog,853,../stimuli/style-transfer-preprocessed-512/dog/dog6-bicycle1.png
vgg16,1,854,0,bird,dog,854,../stimuli/style-transfer-preprocessed-512/dog/dog6-bird1.png
vgg16,1,855,0,dog,dog,855,../stimuli/style-transfer-preprocessed-512/dog/dog6-cat1.png
vgg16,1,856,0,clock,dog,856,../stimuli/style-transfer-preprocessed-512/dog/dog6-clock1.png
vgg16,1,857,0,elephant,dog,857,../stimuli/style-transfer-preprocessed-512/dog/dog6-elephant2.png
vgg16,1,858,0,car,dog,858,../stimuli/style-transfer-preprocessed-512/dog/dog6-truck2.png
vgg16,1,859,0,dog,dog,859,../stimuli/style-transfer-preprocessed-512/dog/dog7-bird3.png
vgg16,1,860,0,car,dog,860,../stimuli/style-transfer-preprocessed-512/dog/dog7-car2.png
vgg16,1,861,0,chair,dog,861,../stimuli/style-transfer-preprocessed-512/dog/dog7-chair2.png
vgg16,1,862,0,bottle,dog,862,../stimuli/style-transfer-preprocessed-512/dog/dog7-keyboard3.png
vgg16,1,863,0,knife,dog,863,../stimuli/style-transfer-preprocessed-512/dog/dog7-knife3.png
vgg16,1,864,0,oven,dog,864,../stimuli/style-transfer-preprocessed-512/dog/dog7-oven2.png
vgg16,1,865,0,bear,dog,865,../stimuli/style-transfer-preprocessed-512/dog/dog8-bear3.png
vgg16,1,866,0,truck,dog,866,../stimuli/style-transfer-preprocessed-512/dog/dog8-boat3.png
vgg16,1,867,0,bottle,dog,867,../stimuli/style-transfer-preprocessed-512/dog/dog8-bottle2.png
vgg16,1,868,0,chair,dog,868,../stimuli/style-transfer-preprocessed-512/dog/dog8-chair3.png
vgg16,1,869,0,clock,dog,869,../stimuli/style-transfer-preprocessed-512/dog/dog8-clock2.png
vgg16,1,870,0,dog,dog,870,../stimuli/style-transfer-preprocessed-512/dog/dog8-dog3.png
vgg16,1,871,0,bottle,dog,871,../stimuli/style-transfer-preprocessed-512/dog/dog8-keyboard3.png
vgg16,1,872,0,oven,dog,872,../stimuli/style-transfer-preprocessed-512/dog/dog8-oven3.png
vgg16,1,873,0,airplane,dog,873,../stimuli/style-transfer-preprocessed-512/dog/dog9-airplane3.png
vgg16,1,874,0,bear,dog,874,../stimuli/style-transfer-preprocessed-512/dog/dog9-bear3.png
vgg16,1,875,0,bottle,dog,875,../stimuli/style-transfer-preprocessed-512/dog/dog9-bicycle3.png
vgg16,1,876,0,boat,dog,876,../stimuli/style-transfer-preprocessed-512/dog/dog9-boat1.png
vgg16,1,877,0,bottle,dog,877,../stimuli/style-transfer-preprocessed-512/dog/dog9-bottle1.png
vgg16,1,878,0,boat,dog,878,../stimuli/style-transfer-preprocessed-512/dog/dog9-car1.png
vgg16,1,879,0,cat,dog,879,../stimuli/style-transfer-preprocessed-512/dog/dog9-cat1.png
vgg16,1,880,0,chair,dog,880,../stimuli/style-transfer-preprocessed-512/dog/dog9-chair2.png
vgg16,1,881,0,airplane,elephant,881,../stimuli/style-transfer-preprocessed-512/elephant/elephant1-airplane2.png
vgg16,1,882,0,bear,elephant,882,../stimuli/style-transfer-preprocessed-512/elephant/elephant1-bear2.png
vgg16,1,883,0,boat,elephant,883,../stimuli/style-transfer-preprocessed-512/elephant/elephant1-boat2.png
vgg16,1,884,0,bottle,elephant,884,../stimuli/style-transfer-preprocessed-512/elephant/elephant1-bottle1.png
vgg16,1,885,0,car,elephant,885,../stimuli/style-transfer-preprocessed-512/elephant/elephant1-car3.png
vgg16,1,886,0,chair,elephant,886,../stimuli/style-transfer-preprocessed-512/elephant/elephant1-chair1.png
vgg16,1,887,0,dog,elephant,887,../stimuli/style-transfer-preprocessed-512/elephant/elephant1-dog2.png
vgg16,1,888,0,bottle,elephant,888,../stimuli/style-transfer-preprocessed-512/elephant/elephant1-keyboard3.png
vgg16,1,889,0,oven,elephant,889,../stimuli/style-transfer-preprocessed-512/elephant/elephant1-oven2.png
vgg16,1,890,0,cat,elephant,890,../stimuli/style-transfer-preprocessed-512/elephant/elephant10-bear1.png
vgg16,1,891,0,elephant,elephant,891,../stimuli/style-transfer-preprocessed-512/elephant/elephant10-elephant1.png
vgg16,1,892,0,keyboard,elephant,892,../stimuli/style-transfer-preprocessed-512/elephant/elephant10-keyboard1.png
vgg16,1,893,0,knife,elephant,893,../stimuli/style-transfer-preprocessed-512/elephant/elephant10-knife3.png
vgg16,1,894,0,truck,elephant,894,../stimuli/style-transfer-preprocessed-512/elephant/elephant2-airplane3.png
vgg16,1,895,0,bear,elephant,895,../stimuli/style-transfer-preprocessed-512/elephant/elephant2-bear3.png
vgg16,1,896,0,bird,elephant,896,../stimuli/style-transfer-preprocessed-512/elephant/elephant2-bird1.png
vgg16,1,897,0,bottle,elephant,897,../stimuli/style-transfer-preprocessed-512/elephant/elephant2-boat1.png
vgg16,1,898,0,bottle,elephant,898,../stimuli/style-transfer-preprocessed-512/elephant/elephant2-bottle3.png
vgg16,1,899,0,cat,elephant,899,../stimuli/style-transfer-preprocessed-512/elephant/elephant2-cat1.png
vgg16,1,900,0,clock,elephant,900,../stimuli/style-transfer-preprocessed-512/elephant/elephant2-clock1.png
vgg16,1,901,0,elephant,elephant,901,../stimuli/style-transfer-preprocessed-512/elephant/elephant2-elephant3.png
vgg16,1,902,0,knife,elephant,902,../stimuli/style-transfer-preprocessed-512/elephant/elephant2-keyboard3.png
vgg16,1,903,0,car,elephant,903,../stimuli/style-transfer-preprocessed-512/elephant/elephant2-truck2.png
vgg16,1,904,0,cat,elephant,904,../stimuli/style-transfer-preprocessed-512/elephant/elephant3-cat2.png
vgg16,1,905,0,chair,elephant,905,../stimuli/style-transfer-preprocessed-512/elephant/elephant3-chair1.png
vgg16,1,906,0,bottle,elephant,906,../stimuli/style-transfer-preprocessed-512/elephant/elephant3-keyboard2.png
vgg16,1,907,0,bottle,elephant,907,../stimuli/style-transfer-preprocessed-512/elephant/elephant3-knife1.png
vgg16,1,908,0,oven,elephant,908,../stimuli/style-transfer-preprocessed-512/elephant/elephant3-oven1.png
vgg16,1,909,0,car,elephant,909,../stimuli/style-transfer-preprocessed-512/elephant/elephant3-truck1.png
vgg16,1,910,0,chair,elephant,910,../stimuli/style-transfer-preprocessed-512/elephant/elephant4-bicycle2.png
vgg16,1,911,0,bird,elephant,911,../stimuli/style-transfer-preprocessed-512/elephant/elephant4-bird1.png
vgg16,1,912,0,boat,elephant,912,../stimuli/style-transfer-preprocessed-512/elephant/elephant4-boat3.png
vgg16,1,913,0,car,elephant,913,../stimuli/style-transfer-preprocessed-512/elephant/elephant4-car3.png
vgg16,1,914,0,chair,elephant,914,../stimuli/style-transfer-preprocessed-512/elephant/elephant4-chair3.png
vgg16,1,915,0,clock,elephant,915,../stimuli/style-transfer-preprocessed-512/elephant/elephant4-clock3.png
vgg16,1,916,0,oven,elephant,916,../stimuli/style-transfer-preprocessed-512/elephant/elephant4-oven1.png
vgg16,1,917,0,bear,elephant,917,../stimuli/style-transfer-preprocessed-512/elephant/elephant5-bear2.png
vgg16,1,918,0,knife,elephant,918,../stimuli/style-transfer-preprocessed-512/elephant/elephant5-bicycle3.png
vgg16,1,919,0,bottle,elephant,919,../stimuli/style-transfer-preprocessed-512/elephant/elephant5-bottle2.png
vgg16,1,920,0,car,elephant,920,../stimuli/style-transfer-preprocessed-512/elephant/elephant5-car1.png
vgg16,1,921,0,chair,elephant,921,../stimuli/style-transfer-preprocessed-512/elephant/elephant5-chair3.png
vgg16,1,922,0,elephant,elephant,922,../stimuli/style-transfer-preprocessed-512/elephant/elephant5-elephant1.png
vgg16,1,923,0,truck,elephant,923,../stimuli/style-transfer-preprocessed-512/elephant/elephant5-truck1.png
vgg16,1,924,0,bicycle,elephant,924,../stimuli/style-transfer-preprocessed-512/elephant/elephant6-bicycle1.png
vgg16,1,925,0,bird,elephant,925,../stimuli/style-transfer-preprocessed-512/elephant/elephant6-bird1.png
vgg16,1,926,0,bottle,elephant,926,../stimuli/style-transfer-preprocessed-512/elephant/elephant6-bottle2.png
vgg16,1,927,0,car,elephant,927,../stimuli/style-transfer-preprocessed-512/elephant/elephant6-car3.png
vgg16,1,928,0,cat,elephant,928,../stimuli/style-transfer-preprocessed-512/elephant/elephant6-cat2.png
vgg16,1,929,0,dog,elephant,929,../stimuli/style-transfer-preprocessed-512/elephant/elephant6-dog2.png
vgg16,1,930,0,knife,elephant,930,../stimuli/style-transfer-preprocessed-512/elephant/elephant6-knife2.png
vgg16,1,931,0,oven,elephant,931,../stimuli/style-transfer-preprocessed-512/elephant/elephant6-oven1.png
vgg16,1,932,0,truck,elephant,932,../stimuli/style-transfer-preprocessed-512/elephant/elephant6-truck3.png
vgg16,1,933,0,airplane,elephant,933,../stimuli/style-transfer-preprocessed-512/elephant/elephant7-airplane3.png
vgg16,1,934,0,bear,elephant,934,../stimuli/style-transfer-preprocessed-512/elephant/elephant7-bear3.png
vgg16,1,935,0,bird,elephant,935,../stimuli/style-transfer-preprocessed-512/elephant/elephant7-bird1.png
vgg16,1,936,0,bottle,elephant,936,../stimuli/style-transfer-preprocessed-512/elephant/elephant7-bottle3.png
vgg16,1,937,0,car,elephant,937,../stimuli/style-transfer-preprocessed-512/elephant/elephant7-car3.png
vgg16,1,938,0,cat,elephant,938,../stimuli/style-transfer-preprocessed-512/elephant/elephant7-cat1.png
vgg16,1,939,0,clock,elephant,939,../stimuli/style-transfer-preprocessed-512/elephant/elephant7-clock2.png
vgg16,1,940,0,dog,elephant,940,../stimuli/style-transfer-preprocessed-512/elephant/elephant7-dog1.png
vgg16,1,941,0,bottle,elephant,941,../stimuli/style-transfer-preprocessed-512/elephant/elephant7-keyboard3.png
vgg16,1,942,0,knife,elephant,942,../stimuli/style-transfer-preprocessed-512/elephant/elephant7-knife2.png
vgg16,1,943,0,clock,elephant,943,../stimuli/style-transfer-preprocessed-512/elephant/elephant8-airplane3.png
vgg16,1,944,0,knife,elephant,944,../stimuli/style-transfer-preprocessed-512/elephant/elephant8-bicycle3.png
vgg16,1,945,0,elephant,elephant,945,../stimuli/style-transfer-preprocessed-512/elephant/elephant8-bird2.png
vgg16,1,946,0,boat,elephant,946,../stimuli/style-transfer-preprocessed-512/elephant/elephant8-boat2.png
vgg16,1,947,0,cat,elephant,947,../stimuli/style-transfer-preprocessed-512/elephant/elephant8-cat1.png
vgg16,1,948,0,clock,elephant,948,../stimuli/style-transfer-preprocessed-512/elephant/elephant8-clock2.png
vgg16,1,949,0,dog,elephant,949,../stimuli/style-transfer-preprocessed-512/elephant/elephant8-dog1.png
vgg16,1,950,0,elephant,elephant,950,../stimuli/style-transfer-preprocessed-512/elephant/elephant8-elephant1.png
vgg16,1,951,0,knife,elephant,951,../stimuli/style-transfer-preprocessed-512/elephant/elephant8-knife2.png
vgg16,1,952,0,knife,elephant,952,../stimuli/style-transfer-preprocessed-512/elephant/elephant8-oven3.png
vgg16,1,953,0,truck,elephant,953,../stimuli/style-transfer-preprocessed-512/elephant/elephant8-truck3.png
vgg16,1,954,0,airplane,elephant,954,../stimuli/style-transfer-preprocessed-512/elephant/elephant9-airplane2.png
vgg16,1,955,0,bicycle,elephant,955,../stimuli/style-transfer-preprocessed-512/elephant/elephant9-bicycle2.png
vgg16,1,956,0,truck,elephant,956,../stimuli/style-transfer-preprocessed-512/elephant/elephant9-boat3.png
vgg16,1,957,0,chair,elephant,957,../stimuli/style-transfer-preprocessed-512/elephant/elephant9-chair2.png
vgg16,1,958,0,clock,elephant,958,../stimuli/style-transfer-preprocessed-512/elephant/elephant9-clock3.png
vgg16,1,959,0,dog,elephant,959,../stimuli/style-transfer-preprocessed-512/elephant/elephant9-dog3.png
vgg16,1,960,0,elephant,elephant,960,../stimuli/style-transfer-preprocessed-512/elephant/elephant9-elephant3.png
vgg16,1,961,0,car,keyboard,961,../stimuli/style-transfer-preprocessed-512/keyboard/keyboard1-airplane2.png
vgg16,1,962,0,bear,keyboard,962,../stimuli/style-transfer-preprocessed-512/keyboard/keyboard1-bear2.png
vgg16,1,963,0,bird,keyboard,963,../stimuli/style-transfer-preprocessed-512/keyboard/keyboard1-bird2.png
vgg16,1,964,0,car,keyboard,964,../stimuli/style-transfer-preprocessed-512/keyboard/keyboard1-car3.png
vgg16,1,965,0,chair,keyboard,965,../stimuli/style-transfer-preprocessed-512/keyboard/keyboard1-chair2.png
vgg16,1,966,0,clock,keyboard,966,../stimuli/style-transfer-preprocessed-512/keyboard/keyboard1-clock1.png
vgg16,1,967,0,cat,keyboard,967,../stimuli/style-transfer-preprocessed-512/keyboard/keyboard1-dog3.png
vgg16,1,968,0,elephant,keyboard,968,../stimuli/style-transfer-preprocessed-512/keyboard/keyboard1-elephant3.png
vgg16,1,969,0,airplane,keyboard,969,../stimuli/style-transfer-preprocessed-512/keyboard/keyboard10-airplane3.png
vgg16,1,970,0,boat,keyboard,970,../stimuli/style-transfer-preprocessed-512/keyboard/keyboard10-boat2.png
vgg16,1,971,0,car,keyboard,971,../stimuli/style-transfer-preprocessed-512/keyboard/keyboard10-car1.png
vgg16,1,972,0,keyboard,keyboard,972,../stimuli/style-transfer-preprocessed-512/keyboard/keyboard10-keyboard1.png
vgg16,1,973,0,oven,keyboard,973,../stimuli/style-transfer-preprocessed-512/keyboard/keyboard10-oven3.png
vgg16,1,974,0,car,keyboard,974,../stimuli/style-transfer-preprocessed-512/keyboard/keyboard10-truck1.png
vgg16,1,975,0,chair,keyboard,975,../stimuli/style-transfer-preprocessed-512/keyboard/keyboard2-bicycle3.png
vgg16,1,976,0,bottle,keyboard,976,../stimuli/style-transfer-preprocessed-512/keyboard/keyboard2-bottle1.png
vgg16,1,977,0,clock,keyboard,977,../stimuli/style-transfer-preprocessed-512/keyboard/keyboard2-clock1.png
vgg16,1,978,0,elephant,keyboard,978,../stimuli/style-transfer-preprocessed-512/keyboard/keyboard2-elephant1.png
vgg16,1,979,0,knife,keyboard,979,../stimuli/style-transfer-preprocessed-512/keyboard/keyboard2-knife1.png
vgg16,1,980,0,chair,keyboard,980,../stimuli/style-transfer-preprocessed-512/keyboard/keyboard3-bicycle2.png
vgg16,1,981,0,bird,keyboard,981,../stimuli/style-transfer-preprocessed-512/keyboard/keyboard3-bird3.png
vgg16,1,982,0,boat,keyboard,982,../stimuli/style-transfer-preprocessed-512/keyboard/keyboard3-boat1.png
vgg16,1,983,0,car,keyboard,983,../stimuli/style-transfer-preprocessed-512/keyboard/keyboard3-car2.png
vgg16,1,984,0,cat,keyboard,984,../stimuli/style-transfer-preprocessed-512/keyboard/keyboard3-cat1.png
vgg16,1,985,0,clock,keyboard,985,../stimuli/style-transfer-preprocessed-512/keyboard/keyboard3-clock3.png
vgg16,1,986,0,elephant,keyboard,986,../stimuli/style-transfer-preprocessed-512/keyboard/keyboard3-elephant2.png
vgg16,1,987,0,bird,keyboard,987,../stimuli/style-transfer-preprocessed-512/keyboard/keyboard4-bird1.png
vgg16,1,988,0,bottle,keyboard,988,../stimuli/style-transfer-preprocessed-512/keyboard/keyboard4-bottle2.png
vgg16,1,989,0,cat,keyboard,989,../stimuli/style-transfer-preprocessed-512/keyboard/keyboard4-cat2.png
vgg16,1,990,0,bottle,keyboard,990,../stimuli/style-transfer-preprocessed-512/keyboard/keyboard4-clock2.png
vgg16,1,991,0,keyboard,keyboard,991,../stimuli/style-transfer-preprocessed-512/keyboard/keyboard4-keyboard2.png
vgg16,1,992,0,knife,keyboard,992,../stimuli/style-transfer-preprocessed-512/keyboard/keyboard4-knife2.png
vgg16,1,993,0,keyboard,keyboard,993,../stimuli/style-transfer-preprocessed-512/keyboard/keyboard4-oven2.png
vgg16,1,994,0,truck,keyboard,994,../stimuli/style-transfer-preprocessed-512/keyboard/keyboard4-truck3.png
vgg16,1,995,0,keyboard,keyboard,995,../stimuli/style-transfer-preprocessed-512/keyboard/keyboard5-airplane3.png
vgg16,1,996,0,bear,keyboard,996,../stimuli/style-transfer-preprocessed-512/keyboard/keyboard5-bear3.png
vgg16,1,997,0,bicycle,keyboard,997,../stimuli/style-transfer-preprocessed-512/keyboard/keyboard5-bicycle1.png
vgg16,1,998,0,dog,keyboard,998,../stimuli/style-transfer-preprocessed-512/keyboard/keyboard5-bird3.png
vgg16,1,999,0,bottle,keyboard,999,../stimuli/style-transfer-preprocessed-512/keyboard/keyboard5-bottle1.png
vgg16,1,1000,0,cat,keyboard,1000,../stimuli/style-transfer-preprocessed-512/keyboard/keyboard5-cat1.png
vgg16,1,1001,0,dog,keyboard,1001,../stimuli/style-transfer-preprocessed-512/keyboard/keyboard5-dog3.png
vgg16,1,1002,0,keyboard,keyboard,1002,../stimuli/style-transfer-preprocessed-512/keyboard/keyboard5-keyboard1.png
vgg16,1,1003,0,knife,keyboard,1003,../stimuli/style-transfer-preprocessed-512/keyboard/keyboard5-knife2.png
vgg16,1,1004,0,keyboard,keyboard,1004,../stimuli/style-transfer-preprocessed-512/keyboard/keyboard5-oven2.png
vgg16,1,1005,0,cat,keyboard,1005,../stimuli/style-transfer-preprocessed-512/keyboard/keyboard6-bear2.png
vgg16,1,1006,0,bicycle,keyboard,1006,../stimuli/style-transfer-preprocessed-512/keyboard/keyboard6-bicycle1.png
vgg16,1,1007,0,boat,keyboard,1007,../stimuli/style-transfer-preprocessed-512/keyboard/keyboard6-boat2.png
vgg16,1,1008,0,bottle,keyboard,1008,../stimuli/style-transfer-preprocessed-512/keyboard/keyboard6-bottle2.png
vgg16,1,1009,0,car,keyboard,1009,../stimuli/style-transfer-preprocessed-512/keyboard/keyboard6-car2.png
vgg16,1,1010,0,car,keyboard,1010,../stimuli/style-transfer-preprocessed-512/keyboard/keyboard6-chair1.png
vgg16,1,1011,0,dog,keyboard,1011,../stimuli/style-transfer-preprocessed-512/keyboard/keyboard6-dog2.png
vgg16,1,1012,0,elephant,keyboard,1012,../stimuli/style-transfer-preprocessed-512/keyboard/keyboard6-elephant1.png
vgg16,1,1013,0,knife,keyboard,1013,../stimuli/style-transfer-preprocessed-512/keyboard/keyboard6-knife2.png
vgg16,1,1014,0,bear,keyboard,1014,../stimuli/style-transfer-preprocessed-512/keyboard/keyboard7-bear2.png
vgg16,1,1015,0,boat,keyboard,1015,../stimuli/style-transfer-preprocessed-512/keyboard/keyboard7-boat2.png
vgg16,1,1016,0,bottle,keyboard,1016,../stimuli/style-transfer-preprocessed-512/keyboard/keyboard7-bottle1.png
vgg16,1,1017,0,car,keyboard,1017,../stimuli/style-transfer-preprocessed-512/keyboard/keyboard7-car3.png
vgg16,1,1018,0,chair,keyboard,1018,../stimuli/style-transfer-preprocessed-512/keyboard/keyboard7-chair3.png
vgg16,1,1019,0,clock,keyboard,1019,../stimuli/style-transfer-preprocessed-512/keyboard/keyboard7-clock3.png
vgg16,1,1020,0,dog,keyboard,1020,../stimuli/style-transfer-preprocessed-512/keyboard/keyboard7-dog1.png
vgg16,1,1021,0,knife,keyboard,1021,../stimuli/style-transfer-preprocessed-512/keyboard/keyboard7-knife1.png
vgg16,1,1022,0,oven,keyboard,1022,../stimuli/style-transfer-preprocessed-512/keyboard/keyboard7-oven2.png
vgg16,1,1023,0,car,keyboard,1023,../stimuli/style-transfer-preprocessed-512/keyboard/keyboard7-truck2.png
vgg16,1,1024,0,airplane,keyboard,1024,../stimuli/style-transfer-preprocessed-512/keyboard/keyboard8-airplane2.png
vgg16,1,1025,0,cat,keyboard,1025,../stimuli/style-transfer-preprocessed-512/keyboard/keyboard8-cat3.png
