subj,session,trial,rt,object_response,category,condition,imagename
googlenet,1,1,0,knife,airplane,1,../stimuli/style-transfer-preprocessed-512\airplane\airplane1-bicycle2.png
googlenet,1,2,0,bottle,airplane,2,../stimuli/style-transfer-preprocessed-512\airplane\airplane1-chair2.png
googlenet,1,3,0,elephant,airplane,3,../stimuli/style-transfer-preprocessed-512\airplane\airplane1-clock1.png
googlenet,1,4,0,elephant,airplane,4,../stimuli/style-transfer-preprocessed-512\airplane\airplane1-elephant1.png
googlenet,1,5,0,oven,airplane,5,../stimuli/style-transfer-preprocessed-512\airplane\airplane10-airplane1.png
googlenet,1,6,0,clock,airplane,6,../stimuli/style-transfer-preprocessed-512\airplane\airplane10-bear3.png
googlenet,1,7,0,clock,airplane,7,../stimuli/style-transfer-preprocessed-512\airplane\airplane10-boat3.png
googlenet,1,8,0,oven,airplane,8,../stimuli/style-transfer-preprocessed-512\airplane\airplane10-car3.png
googlenet,1,9,0,oven,airplane,9,../stimuli/style-transfer-preprocessed-512\airplane\airplane10-cat2.png
googlenet,1,10,0,oven,airplane,10,../stimuli/style-transfer-preprocessed-512\airplane\airplane10-dog3.png
googlenet,1,11,0,knife,airplane,11,../stimuli/style-transfer-preprocessed-512\airplane\airplane10-elephant1.png
googlenet,1,12,0,oven,airplane,12,../stimuli/style-transfer-preprocessed-512\airplane\airplane10-knife3.png
googlenet,1,13,0,keyboard,airplane,13,../stimuli/style-transfer-preprocessed-512\airplane\airplane10-oven2.png
googlenet,1,14,0,bottle,airplane,14,../stimuli/style-transfer-preprocessed-512\airplane\airplane10-truck1.png
googlenet,1,15,0,clock,airplane,15,../stimuli/style-transfer-preprocessed-512\airplane\airplane2-bear1.png
googlenet,1,16,0,chair,airplane,16,../stimuli/style-transfer-preprocessed-512\airplane\airplane2-bicycle1.png
googlenet,1,17,0,bottle,airplane,17,../stimuli/style-transfer-preprocessed-512\airplane\airplane2-bird3.png
googlenet,1,18,0,keyboard,airplane,18,../stimuli/style-transfer-preprocessed-512\airplane\airplane2-bottle1.png
googlenet,1,19,0,knife,airplane,19,../stimuli/style-transfer-preprocessed-512\airplane\airplane2-cat1.png
googlenet,1,20,0,knife,airplane,20,../stimuli/style-transfer-preprocessed-512\airplane\airplane2-dog1.png
googlenet,1,21,0,knife,airplane,21,../stimuli/style-transfer-preprocessed-512\airplane\airplane3-airplane2.png
googlenet,1,22,0,elephant,airplane,22,../stimuli/style-transfer-preprocessed-512\airplane\airplane3-car1.png
googlenet,1,23,0,clock,airplane,23,../stimuli/style-transfer-preprocessed-512\airplane\airplane3-cat1.png
googlenet,1,24,0,oven,airplane,24,../stimuli/style-transfer-preprocessed-512\airplane\airplane3-chair3.png
googlenet,1,25,0,bottle,airplane,25,../stimuli/style-transfer-preprocessed-512\airplane\airplane3-clock1.png
googlenet,1,26,0,airplane,airplane,26,../stimuli/style-transfer-preprocessed-512\airplane\airplane3-dog1.png
googlenet,1,27,0,knife,airplane,27,../stimuli/style-transfer-preprocessed-512\airplane\airplane3-elephant1.png
googlenet,1,28,0,clock,airplane,28,../stimuli/style-transfer-preprocessed-512\airplane\airplane3-keyboard2.png
googlenet,1,29,0,keyboard,airplane,29,../stimuli/style-transfer-preprocessed-512\airplane\airplane3-oven1.png
googlenet,1,30,0,knife,airplane,30,../stimuli/style-transfer-preprocessed-512\airplane\airplane4-airplane1.png
googlenet,1,31,0,oven,airplane,31,../stimuli/style-transfer-preprocessed-512\airplane\airplane4-bear3.png
googlenet,1,32,0,clock,airplane,32,../stimuli/style-transfer-preprocessed-512\airplane\airplane4-bicycle2.png
googlenet,1,33,0,oven,airplane,33,../stimuli/style-transfer-preprocessed-512\airplane\airplane4-bird3.png
googlenet,1,34,0,bottle,airplane,34,../stimuli/style-transfer-preprocessed-512\airplane\airplane4-boat3.png
googlenet,1,35,0,knife,airplane,35,../stimuli/style-transfer-preprocessed-512\airplane\airplane4-bottle1.png
googlenet,1,36,0,bicycle,airplane,36,../stimuli/style-transfer-preprocessed-512\airplane\airplane4-car1.png
googlenet,1,37,0,bottle,airplane,37,../stimuli/style-transfer-preprocessed-512\airplane\airplane4-cat3.png
googlenet,1,38,0,knife,airplane,38,../stimuli/style-transfer-preprocessed-512\airplane\airplane4-dog2.png
googlenet,1,39,0,chair,airplane,39,../stimuli/style-transfer-preprocessed-512\airplane\airplane4-elephant1.png
googlenet,1,40,0,bottle,airplane,40,../stimuli/style-transfer-preprocessed-512\airplane\airplane4-keyboard3.png
googlenet,1,41,0,oven,airplane,41,../stimuli/style-transfer-preprocessed-512\airplane\airplane4-knife1.png
googlenet,1,42,0,knife,airplane,42,../stimuli/style-transfer-preprocessed-512\airplane\airplane4-truck2.png
googlenet,1,43,0,bicycle,airplane,43,../stimuli/style-transfer-preprocessed-512\airplane\airplane5-bear2.png
googlenet,1,44,0,bottle,airplane,44,../stimuli/style-transfer-preprocessed-512\airplane\airplane5-bicycle1.png
googlenet,1,45,0,oven,airplane,45,../stimuli/style-transfer-preprocessed-512\airplane\airplane5-bird2.png
googlenet,1,46,0,oven,airplane,46,../stimuli/style-transfer-preprocessed-512\airplane\airplane5-boat3.png
googlenet,1,47,0,bottle,airplane,47,../stimuli/style-transfer-preprocessed-512\airplane\airplane5-bottle3.png
googlenet,1,48,0,knife,airplane,48,../stimuli/style-transfer-preprocessed-512\airplane\airplane5-chair3.png
googlenet,1,49,0,knife,airplane,49,../stimuli/style-transfer-preprocessed-512\airplane\airplane5-dog3.png
googlenet,1,50,0,knife,airplane,50,../stimuli/style-transfer-preprocessed-512\airplane\airplane5-knife1.png
googlenet,1,51,0,knife,airplane,51,../stimuli/style-transfer-preprocessed-512\airplane\airplane5-oven3.png
googlenet,1,52,0,oven,airplane,52,../stimuli/style-transfer-preprocessed-512\airplane\airplane6-bear3.png
googlenet,1,53,0,clock,airplane,53,../stimuli/style-transfer-preprocessed-512\airplane\airplane6-bottle2.png
googlenet,1,54,0,elephant,airplane,54,../stimuli/style-transfer-preprocessed-512\airplane\airplane6-chair3.png
googlenet,1,55,0,knife,airplane,55,../stimuli/style-transfer-preprocessed-512\airplane\airplane6-keyboard3.png
googlenet,1,56,0,elephant,airplane,56,../stimuli/style-transfer-preprocessed-512\airplane\airplane6-knife1.png
googlenet,1,57,0,bicycle,airplane,57,../stimuli/style-transfer-preprocessed-512\airplane\airplane7-airplane3.png
googlenet,1,58,0,oven,airplane,58,../stimuli/style-transfer-preprocessed-512\airplane\airplane7-bird3.png
googlenet,1,59,0,oven,airplane,59,../stimuli/style-transfer-preprocessed-512\airplane\airplane7-boat2.png
googlenet,1,60,0,clock,airplane,60,../stimuli/style-transfer-preprocessed-512\airplane\airplane7-bottle3.png
googlenet,1,61,0,bottle,airplane,61,../stimuli/style-transfer-preprocessed-512\airplane\airplane7-car1.png
googlenet,1,62,0,bottle,airplane,62,../stimuli/style-transfer-preprocessed-512\airplane\airplane7-cat3.png
googlenet,1,63,0,knife,airplane,63,../stimuli/style-transfer-preprocessed-512\airplane\airplane7-clock3.png
googlenet,1,64,0,bottle,airplane,64,../stimuli/style-transfer-preprocessed-512\airplane\airplane7-keyboard1.png
googlenet,1,65,0,bottle,airplane,65,../stimuli/style-transfer-preprocessed-512\airplane\airplane7-truck1.png
googlenet,1,66,0,knife,airplane,66,../stimuli/style-transfer-preprocessed-512\airplane\airplane8-bicycle3.png
googlenet,1,67,0,chair,airplane,67,../stimuli/style-transfer-preprocessed-512\airplane\airplane8-bird1.png
googlenet,1,68,0,bottle,airplane,68,../stimuli/style-transfer-preprocessed-512\airplane\airplane8-chair1.png
googlenet,1,69,0,knife,airplane,69,../stimuli/style-transfer-preprocessed-512\airplane\airplane8-clock2.png
googlenet,1,70,0,bottle,airplane,70,../stimuli/style-transfer-preprocessed-512\airplane\airplane8-elephant3.png
googlenet,1,71,0,knife,airplane,71,../stimuli/style-transfer-preprocessed-512\airplane\airplane8-oven2.png
googlenet,1,72,0,knife,airplane,72,../stimuli/style-transfer-preprocessed-512\airplane\airplane8-truck3.png
googlenet,1,73,0,bottle,airplane,73,../stimuli/style-transfer-preprocessed-512\airplane\airplane9-airplane2.png
googlenet,1,74,0,elephant,airplane,74,../stimuli/style-transfer-preprocessed-512\airplane\airplane9-boat1.png
googlenet,1,75,0,knife,airplane,75,../stimuli/style-transfer-preprocessed-512\airplane\airplane9-car2.png
googlenet,1,76,0,keyboard,airplane,76,../stimuli/style-transfer-preprocessed-512\airplane\airplane9-clock1.png
googlenet,1,77,0,clock,airplane,77,../stimuli/style-transfer-preprocessed-512\airplane\airplane9-keyboard2.png
googlenet,1,78,0,bottle,airplane,78,../stimuli/style-transfer-preprocessed-512\airplane\airplane9-knife3.png
googlenet,1,79,0,bottle,airplane,79,../stimuli/style-transfer-preprocessed-512\airplane\airplane9-oven2.png
googlenet,1,80,0,bottle,airplane,80,../stimuli/style-transfer-preprocessed-512\airplane\airplane9-truck1.png
googlenet,1,81,0,knife,bear,81,../stimuli/style-transfer-preprocessed-512\bear\bear1-airplane3.png
googlenet,1,82,0,chair,bear,82,../stimuli/style-transfer-preprocessed-512\bear\bear1-bear3.png
googlenet,1,83,0,keyboard,bear,83,../stimuli/style-transfer-preprocessed-512\bear\bear1-bicycle3.png
googlenet,1,84,0,cat,bear,84,../stimuli/style-transfer-preprocessed-512\bear\bear1-bird2.png
googlenet,1,85,0,oven,bear,85,../stimuli/style-transfer-preprocessed-512\bear\bear1-chair2.png
googlenet,1,86,0,oven,bear,86,../stimuli/style-transfer-preprocessed-512\bear\bear1-clock2.png
googlenet,1,87,0,clock,bear,87,../stimuli/style-transfer-preprocessed-512\bear\bear1-elephant1.png
googlenet,1,88,0,bottle,bear,88,../stimuli/style-transfer-preprocessed-512\bear\bear10-bear2.png
googlenet,1,89,0,chair,bear,89,../stimuli/style-transfer-preprocessed-512\bear\bear10-bottle1.png
googlenet,1,90,0,knife,bear,90,../stimuli/style-transfer-preprocessed-512\bear\bear10-car2.png
googlenet,1,91,0,bottle,bear,91,../stimuli/style-transfer-preprocessed-512\bear\bear10-cat2.png
googlenet,1,92,0,knife,bear,92,../stimuli/style-transfer-preprocessed-512\bear\bear10-chair2.png
googlenet,1,93,0,chair,bear,93,../stimuli/style-transfer-preprocessed-512\bear\bear10-clock1.png
googlenet,1,94,0,bottle,bear,94,../stimuli/style-transfer-preprocessed-512\bear\bear10-elephant1.png
googlenet,1,95,0,clock,bear,95,../stimuli/style-transfer-preprocessed-512\bear\bear10-keyboard3.png
googlenet,1,96,0,airplane,bear,96,../stimuli/style-transfer-preprocessed-512\bear\bear10-knife2.png
googlenet,1,97,0,chair,bear,97,../stimuli/style-transfer-preprocessed-512\bear\bear10-oven1.png
googlenet,1,98,0,knife,bear,98,../stimuli/style-transfer-preprocessed-512\bear\bear10-truck1.png
googlenet,1,99,0,chair,bear,99,../stimuli/style-transfer-preprocessed-512\bear\bear2-airplane1.png
googlenet,1,100,0,knife,bear,100,../stimuli/style-transfer-preprocessed-512\bear\bear2-bird3.png
googlenet,1,101,0,car,bear,101,../stimuli/style-transfer-preprocessed-512\bear\bear2-car2.png
googlenet,1,102,0,knife,bear,102,../stimuli/style-transfer-preprocessed-512\bear\bear2-cat2.png
googlenet,1,103,0,knife,bear,103,../stimuli/style-transfer-preprocessed-512\bear\bear2-dog1.png
googlenet,1,104,0,oven,bear,104,../stimuli/style-transfer-preprocessed-512\bear\bear2-elephant1.png
googlenet,1,105,0,bottle,bear,105,../stimuli/style-transfer-preprocessed-512\bear\bear2-keyboard2.png
googlenet,1,106,0,knife,bear,106,../stimuli/style-transfer-preprocessed-512\bear\bear2-knife2.png
googlenet,1,107,0,cat,bear,107,../stimuli/style-transfer-preprocessed-512\bear\bear2-oven1.png
googlenet,1,108,0,knife,bear,108,../stimuli/style-transfer-preprocessed-512\bear\bear3-airplane1.png
googlenet,1,109,0,bottle,bear,109,../stimuli/style-transfer-preprocessed-512\bear\bear3-bicycle2.png
googlenet,1,110,0,bottle,bear,110,../stimuli/style-transfer-preprocessed-512\bear\bear3-bird3.png
googlenet,1,111,0,bottle,bear,111,../stimuli/style-transfer-preprocessed-512\bear\bear3-car2.png
googlenet,1,112,0,clock,bear,112,../stimuli/style-transfer-preprocessed-512\bear\bear3-cat1.png
googlenet,1,113,0,chair,bear,113,../stimuli/style-transfer-preprocessed-512\bear\bear3-chair2.png
googlenet,1,114,0,knife,bear,114,../stimuli/style-transfer-preprocessed-512\bear\bear3-dog3.png
googlenet,1,115,0,oven,bear,115,../stimuli/style-transfer-preprocessed-512\bear\bear3-keyboard2.png
googlenet,1,116,0,bottle,bear,116,../stimuli/style-transfer-preprocessed-512\bear\bear3-truck3.png
googlenet,1,117,0,bottle,bear,117,../stimuli/style-transfer-preprocessed-512\bear\bear4-boat2.png
googlenet,1,118,0,chair,bear,118,../stimuli/style-transfer-preprocessed-512\bear\bear4-car3.png
googlenet,1,119,0,bottle,bear,119,../stimuli/style-transfer-preprocessed-512\bear\bear4-cat3.png
googlenet,1,120,0,knife,bear,120,../stimuli/style-transfer-preprocessed-512\bear\bear4-clock3.png
googlenet,1,121,0,clock,bear,121,../stimuli/style-transfer-preprocessed-512\bear\bear4-elephant2.png
googlenet,1,122,0,oven,bear,122,../stimuli/style-transfer-preprocessed-512\bear\bear4-keyboard3.png
googlenet,1,123,0,clock,bear,123,../stimuli/style-transfer-preprocessed-512\bear\bear4-knife1.png
googlenet,1,124,0,clock,bear,124,../stimuli/style-transfer-preprocessed-512\bear\bear4-oven2.png
googlenet,1,125,0,oven,bear,125,../stimuli/style-transfer-preprocessed-512\bear\bear4-truck3.png
googlenet,1,126,0,oven,bear,126,../stimuli/style-transfer-preprocessed-512\bear\bear5-airplane3.png
googlenet,1,127,0,clock,bear,127,../stimuli/style-transfer-preprocessed-512\bear\bear5-bicycle3.png
googlenet,1,128,0,bicycle,bear,128,../stimuli/style-transfer-preprocessed-512\bear\bear5-bird1.png
googlenet,1,129,0,keyboard,bear,129,../stimuli/style-transfer-preprocessed-512\bear\bear5-boat2.png
googlenet,1,130,0,bottle,bear,130,../stimuli/style-transfer-preprocessed-512\bear\bear5-bottle1.png
googlenet,1,131,0,bottle,bear,131,../stimuli/style-transfer-preprocessed-512\bear\bear5-chair1.png
googlenet,1,132,0,bottle,bear,132,../stimuli/style-transfer-preprocessed-512\bear\bear5-oven3.png
googlenet,1,133,0,knife,bear,133,../stimuli/style-transfer-preprocessed-512\bear\bear6-bear1.png
googlenet,1,134,0,keyboard,bear,134,../stimuli/style-transfer-preprocessed-512\bear\bear6-bird2.png
googlenet,1,135,0,clock,bear,135,../stimuli/style-transfer-preprocessed-512\bear\bear6-boat3.png
googlenet,1,136,0,bottle,bear,136,../stimuli/style-transfer-preprocessed-512\bear\bear6-bottle3.png
googlenet,1,137,0,knife,bear,137,../stimuli/style-transfer-preprocessed-512\bear\bear6-car2.png
googlenet,1,138,0,airplane,bear,138,../stimuli/style-transfer-preprocessed-512\bear\bear6-cat3.png
googlenet,1,139,0,knife,bear,139,../stimuli/style-transfer-preprocessed-512\bear\bear6-chair1.png
googlenet,1,140,0,oven,bear,140,../stimuli/style-transfer-preprocessed-512\bear\bear6-clock1.png
googlenet,1,141,0,clock,bear,141,../stimuli/style-transfer-preprocessed-512\bear\bear7-bear2.png
googlenet,1,142,0,knife,bear,142,../stimuli/style-transfer-preprocessed-512\bear\bear7-bicycle2.png
googlenet,1,143,0,clock,bear,143,../stimuli/style-transfer-preprocessed-512\bear\bear7-clock1.png
googlenet,1,144,0,bottle,bear,144,../stimuli/style-transfer-preprocessed-512\bear\bear7-dog3.png
googlenet,1,145,0,clock,bear,145,../stimuli/style-transfer-preprocessed-512\bear\bear7-oven3.png
googlenet,1,146,0,chair,bear,146,../stimuli/style-transfer-preprocessed-512\bear\bear7-truck1.png
googlenet,1,147,0,bottle,bear,147,../stimuli/style-transfer-preprocessed-512\bear\bear8-airplane1.png
googlenet,1,148,0,knife,bear,148,../stimuli/style-transfer-preprocessed-512\bear\bear8-bear1.png
googlenet,1,149,0,knife,bear,149,../stimuli/style-transfer-preprocessed-512\bear\bear8-bicycle3.png
googlenet,1,150,0,bottle,bear,150,../stimuli/style-transfer-preprocessed-512\bear\bear8-boat2.png
googlenet,1,151,0,knife,bear,151,../stimuli/style-transfer-preprocessed-512\bear\bear8-bottle1.png
googlenet,1,152,0,bottle,bear,152,../stimuli/style-transfer-preprocessed-512\bear\bear8-dog1.png
googlenet,1,153,0,oven,bear,153,../stimuli/style-transfer-preprocessed-512\bear\bear8-elephant2.png
googlenet,1,154,0,keyboard,bear,154,../stimuli/style-transfer-preprocessed-512\bear\bear8-knife3.png
googlenet,1,155,0,knife,bear,155,../stimuli/style-transfer-preprocessed-512\bear\bear8-truck3.png
googlenet,1,156,0,oven,bear,156,../stimuli/style-transfer-preprocessed-512\bear\bear9-boat2.png
googlenet,1,157,0,knife,bear,157,../stimuli/style-transfer-preprocessed-512\bear\bear9-bottle2.png
googlenet,1,158,0,keyboard,bear,158,../stimuli/style-transfer-preprocessed-512\bear\bear9-dog1.png
googlenet,1,159,0,bottle,bear,159,../stimuli/style-transfer-preprocessed-512\bear\bear9-keyboard3.png
googlenet,1,160,0,knife,bear,160,../stimuli/style-transfer-preprocessed-512\bear\bear9-knife2.png
googlenet,1,161,0,clock,bicycle,161,../stimuli/style-transfer-preprocessed-512\bicycle\bicycle1-airplane2.png
googlenet,1,162,0,bottle,bicycle,162,../stimuli/style-transfer-preprocessed-512\bicycle\bicycle1-bear1.png
googlenet,1,163,0,bottle,bicycle,163,../stimuli/style-transfer-preprocessed-512\bicycle\bicycle1-bicycle3.png
googlenet,1,164,0,knife,bicycle,164,../stimuli/style-transfer-preprocessed-512\bicycle\bicycle1-bird1.png
googlenet,1,165,0,bottle,bicycle,165,../stimuli/style-transfer-preprocessed-512\bicycle\bicycle1-boat3.png
googlenet,1,166,0,bottle,bicycle,166,../stimuli/style-transfer-preprocessed-512\bicycle\bicycle1-bottle3.png
googlenet,1,167,0,airplane,bicycle,167,../stimuli/style-transfer-preprocessed-512\bicycle\bicycle1-chair1.png
googlenet,1,168,0,knife,bicycle,168,../stimuli/style-transfer-preprocessed-512\bicycle\bicycle1-clock3.png
googlenet,1,169,0,oven,bicycle,169,../stimuli/style-transfer-preprocessed-512\bicycle\bicycle1-dog3.png
googlenet,1,170,0,chair,bicycle,170,../stimuli/style-transfer-preprocessed-512\bicycle\bicycle1-elephant2.png
googlenet,1,171,0,bottle,bicycle,171,../stimuli/style-transfer-preprocessed-512\bicycle\bicycle1-knife3.png
googlenet,1,172,0,keyboard,bicycle,172,../stimuli/style-transfer-preprocessed-512\bicycle\bicycle1-oven1.png
googlenet,1,173,0,oven,bicycle,173,../stimuli/style-transfer-preprocessed-512\bicycle\bicycle1-truck1.png
googlenet,1,174,0,clock,bicycle,174,../stimuli/style-transfer-preprocessed-512\bicycle\bicycle10-airplane2.png
googlenet,1,175,0,knife,bicycle,175,../stimuli/style-transfer-preprocessed-512\bicycle\bicycle10-boat3.png
googlenet,1,176,0,chair,bicycle,176,../stimuli/style-transfer-preprocessed-512\bicycle\bicycle10-clock2.png
googlenet,1,177,0,knife,bicycle,177,../stimuli/style-transfer-preprocessed-512\bicycle\bicycle10-dog3.png
googlenet,1,178,0,knife,bicycle,178,../stimuli/style-transfer-preprocessed-512\bicycle\bicycle10-elephant2.png
googlenet,1,179,0,bottle,bicycle,179,../stimuli/style-transfer-preprocessed-512\bicycle\bicycle2-bicycle1.png
googlenet,1,180,0,cat,bicycle,180,../stimuli/style-transfer-preprocessed-512\bicycle\bicycle2-bird3.png
googlenet,1,181,0,airplane,bicycle,181,../stimuli/style-transfer-preprocessed-512\bicycle\bicycle2-bottle1.png
googlenet,1,182,0,chair,bicycle,182,../stimuli/style-transfer-preprocessed-512\bicycle\bicycle2-car2.png
googlenet,1,183,0,bicycle,bicycle,183,../stimuli/style-transfer-preprocessed-512\bicycle\bicycle2-dog1.png
googlenet,1,184,0,knife,bicycle,184,../stimuli/style-transfer-preprocessed-512\bicycle\bicycle2-keyboard2.png
googlenet,1,185,0,knife,bicycle,185,../stimuli/style-transfer-preprocessed-512\bicycle\bicycle2-knife2.png
googlenet,1,186,0,keyboard,bicycle,186,../stimuli/style-transfer-preprocessed-512\bicycle\bicycle3-bird1.png
googlenet,1,187,0,chair,bicycle,187,../stimuli/style-transfer-preprocessed-512\bicycle\bicycle3-elephant2.png
googlenet,1,188,0,clock,bicycle,188,../stimuli/style-transfer-preprocessed-512\bicycle\bicycle3-keyboard1.png
googlenet,1,189,0,oven,bicycle,189,../stimuli/style-transfer-preprocessed-512\bicycle\bicycle3-oven3.png
googlenet,1,190,0,clock,bicycle,190,../stimuli/style-transfer-preprocessed-512\bicycle\bicycle3-truck3.png
googlenet,1,191,0,elephant,bicycle,191,../stimuli/style-transfer-preprocessed-512\bicycle\bicycle4-airplane1.png
googlenet,1,192,0,elephant,bicycle,192,../stimuli/style-transfer-preprocessed-512\bicycle\bicycle4-bicycle3.png
googlenet,1,193,0,clock,bicycle,193,../stimuli/style-transfer-preprocessed-512\bicycle\bicycle4-boat1.png
googlenet,1,194,0,airplane,bicycle,194,../stimuli/style-transfer-preprocessed-512\bicycle\bicycle4-bottle1.png
googlenet,1,195,0,chair,bicycle,195,../stimuli/style-transfer-preprocessed-512\bicycle\bicycle4-car2.png
googlenet,1,196,0,knife,bicycle,196,../stimuli/style-transfer-preprocessed-512\bicycle\bicycle4-cat1.png
googlenet,1,197,0,bottle,bicycle,197,../stimuli/style-transfer-preprocessed-512\bicycle\bicycle4-chair2.png
googlenet,1,198,0,clock,bicycle,198,../stimuli/style-transfer-preprocessed-512\bicycle\bicycle4-clock3.png
googlenet,1,199,0,knife,bicycle,199,../stimuli/style-transfer-preprocessed-512\bicycle\bicycle4-keyboard3.png
googlenet,1,200,0,clock,bicycle,200,../stimuli/style-transfer-preprocessed-512\bicycle\bicycle4-knife3.png
googlenet,1,201,0,chair,bicycle,201,../stimuli/style-transfer-preprocessed-512\bicycle\bicycle4-oven3.png
googlenet,1,202,0,car,bicycle,202,../stimuli/style-transfer-preprocessed-512\bicycle\bicycle4-truck3.png
googlenet,1,203,0,cat,bicycle,203,../stimuli/style-transfer-preprocessed-512\bicycle\bicycle5-bear1.png
googlenet,1,204,0,clock,bicycle,204,../stimuli/style-transfer-preprocessed-512\bicycle\bicycle5-bottle3.png
googlenet,1,205,0,knife,bicycle,205,../stimuli/style-transfer-preprocessed-512\bicycle\bicycle5-car3.png
googlenet,1,206,0,keyboard,bicycle,206,../stimuli/style-transfer-preprocessed-512\bicycle\bicycle5-cat1.png
googlenet,1,207,0,elephant,bicycle,207,../stimuli/style-transfer-preprocessed-512\bicycle\bicycle5-chair2.png
googlenet,1,208,0,bottle,bicycle,208,../stimuli/style-transfer-preprocessed-512\bicycle\bicycle5-dog2.png
googlenet,1,209,0,cat,bicycle,209,../stimuli/style-transfer-preprocessed-512\bicycle\bicycle5-elephant1.png
googlenet,1,210,0,oven,bicycle,210,../stimuli/style-transfer-preprocessed-512\bicycle\bicycle5-keyboard3.png
googlenet,1,211,0,chair,bicycle,211,../stimuli/style-transfer-preprocessed-512\bicycle\bicycle5-oven3.png
googlenet,1,212,0,bottle,bicycle,212,../stimuli/style-transfer-preprocessed-512\bicycle\bicycle6-airplane2.png
googlenet,1,213,0,oven,bicycle,213,../stimuli/style-transfer-preprocessed-512\bicycle\bicycle6-bicycle3.png
googlenet,1,214,0,knife,bicycle,214,../stimuli/style-transfer-preprocessed-512\bicycle\bicycle6-boat2.png
googlenet,1,215,0,knife,bicycle,215,../stimuli/style-transfer-preprocessed-512\bicycle\bicycle6-car2.png
googlenet,1,216,0,clock,bicycle,216,../stimuli/style-transfer-preprocessed-512\bicycle\bicycle6-cat1.png
googlenet,1,217,0,knife,bicycle,217,../stimuli/style-transfer-preprocessed-512\bicycle\bicycle6-dog2.png
googlenet,1,218,0,knife,bicycle,218,../stimuli/style-transfer-preprocessed-512\bicycle\bicycle7-bear2.png
googlenet,1,219,0,bottle,bicycle,219,../stimuli/style-transfer-preprocessed-512\bicycle\bicycle7-bicycle2.png
googlenet,1,220,0,knife,bicycle,220,../stimuli/style-transfer-preprocessed-512\bicycle\bicycle7-cat1.png
googlenet,1,221,0,knife,bicycle,221,../stimuli/style-transfer-preprocessed-512\bicycle\bicycle7-clock3.png
googlenet,1,222,0,clock,bicycle,222,../stimuli/style-transfer-preprocessed-512\bicycle\bicycle7-elephant2.png
googlenet,1,223,0,bottle,bicycle,223,../stimuli/style-transfer-preprocessed-512\bicycle\bicycle7-knife2.png
googlenet,1,224,0,clock,bicycle,224,../stimuli/style-transfer-preprocessed-512\bicycle\bicycle7-oven1.png
googlenet,1,225,0,elephant,bicycle,225,../stimuli/style-transfer-preprocessed-512\bicycle\bicycle7-truck3.png
googlenet,1,226,0,knife,bicycle,226,../stimuli/style-transfer-preprocessed-512\bicycle\bicycle8-bear2.png
googlenet,1,227,0,knife,bicycle,227,../stimuli/style-transfer-preprocessed-512\bicycle\bicycle8-bird2.png
googlenet,1,228,0,clock,bicycle,228,../stimuli/style-transfer-preprocessed-512\bicycle\bicycle8-boat1.png
googlenet,1,229,0,clock,bicycle,229,../stimuli/style-transfer-preprocessed-512\bicycle\bicycle8-chair2.png
googlenet,1,230,0,knife,bicycle,230,../stimuli/style-transfer-preprocessed-512\bicycle\bicycle8-clock3.png
googlenet,1,231,0,elephant,bicycle,231,../stimuli/style-transfer-preprocessed-512\bicycle\bicycle8-truck1.png
googlenet,1,232,0,bottle,bicycle,232,../stimuli/style-transfer-preprocessed-512\bicycle\bicycle9-airplane2.png
googlenet,1,233,0,bottle,bicycle,233,../stimuli/style-transfer-preprocessed-512\bicycle\bicycle9-bear1.png
googlenet,1,234,0,knife,bicycle,234,../stimuli/style-transfer-preprocessed-512\bicycle\bicycle9-bird3.png
googlenet,1,235,0,knife,bicycle,235,../stimuli/style-transfer-preprocessed-512\bicycle\bicycle9-bottle1.png
googlenet,1,236,0,knife,bicycle,236,../stimuli/style-transfer-preprocessed-512\bicycle\bicycle9-car1.png
googlenet,1,237,0,knife,bicycle,237,../stimuli/style-transfer-preprocessed-512\bicycle\bicycle9-cat3.png
googlenet,1,238,0,oven,bicycle,238,../stimuli/style-transfer-preprocessed-512\bicycle\bicycle9-chair1.png
googlenet,1,239,0,bottle,bicycle,239,../stimuli/style-transfer-preprocessed-512\bicycle\bicycle9-keyboard3.png
googlenet,1,240,0,cat,bicycle,240,../stimuli/style-transfer-preprocessed-512\bicycle\bicycle9-knife3.png
googlenet,1,241,0,clock,bird,241,../stimuli/style-transfer-preprocessed-512\bird\bird1-airplane2.png
googlenet,1,242,0,keyboard,bird,242,../stimuli/style-transfer-preprocessed-512\bird\bird1-bear1.png
googlenet,1,243,0,keyboard,bird,243,../stimuli/style-transfer-preprocessed-512\bird\bird1-bicycle2.png
googlenet,1,244,0,bottle,bird,244,../stimuli/style-transfer-preprocessed-512\bird\bird1-boat1.png
googlenet,1,245,0,bottle,bird,245,../stimuli/style-transfer-preprocessed-512\bird\bird1-chair2.png
googlenet,1,246,0,bottle,bird,246,../stimuli/style-transfer-preprocessed-512\bird\bird1-clock3.png
googlenet,1,247,0,knife,bird,247,../stimuli/style-transfer-preprocessed-512\bird\bird1-elephant2.png
googlenet,1,248,0,cat,bird,248,../stimuli/style-transfer-preprocessed-512\bird\bird1-keyboard3.png
googlenet,1,249,0,knife,bird,249,../stimuli/style-transfer-preprocessed-512\bird\bird1-knife3.png
googlenet,1,250,0,elephant,bird,250,../stimuli/style-transfer-preprocessed-512\bird\bird1-oven1.png
googlenet,1,251,0,knife,bird,251,../stimuli/style-transfer-preprocessed-512\bird\bird1-truck1.png
googlenet,1,252,0,bottle,bird,252,../stimuli/style-transfer-preprocessed-512\bird\bird10-bear2.png
googlenet,1,253,0,clock,bird,253,../stimuli/style-transfer-preprocessed-512\bird\bird10-bicycle1.png
googlenet,1,254,0,knife,bird,254,../stimuli/style-transfer-preprocessed-512\bird\bird10-bird2.png
googlenet,1,255,0,knife,bird,255,../stimuli/style-transfer-preprocessed-512\bird\bird10-cat1.png
googlenet,1,256,0,chair,bird,256,../stimuli/style-transfer-preprocessed-512\bird\bird10-chair1.png
googlenet,1,257,0,bottle,bird,257,../stimuli/style-transfer-preprocessed-512\bird\bird10-clock1.png
googlenet,1,258,0,knife,bird,258,../stimuli/style-transfer-preprocessed-512\bird\bird10-elephant2.png
googlenet,1,259,0,knife,bird,259,../stimuli/style-transfer-preprocessed-512\bird\bird2-airplane3.png
googlenet,1,260,0,bottle,bird,260,../stimuli/style-transfer-preprocessed-512\bird\bird2-bird2.png
googlenet,1,261,0,bottle,bird,261,../stimuli/style-transfer-preprocessed-512\bird\bird2-car3.png
googlenet,1,262,0,bottle,bird,262,../stimuli/style-transfer-preprocessed-512\bird\bird2-clock3.png
googlenet,1,263,0,bottle,bird,263,../stimuli/style-transfer-preprocessed-512\bird\bird2-dog2.png
googlenet,1,264,0,knife,bird,264,../stimuli/style-transfer-preprocessed-512\bird\bird2-knife1.png
googlenet,1,265,0,airplane,bird,265,../stimuli/style-transfer-preprocessed-512\bird\bird3-bear3.png
googlenet,1,266,0,chair,bird,266,../stimuli/style-transfer-preprocessed-512\bird\bird3-bird2.png
googlenet,1,267,0,knife,bird,267,../stimuli/style-transfer-preprocessed-512\bird\bird3-boat3.png
googlenet,1,268,0,clock,bird,268,../stimuli/style-transfer-preprocessed-512\bird\bird3-bottle2.png
googlenet,1,269,0,knife,bird,269,../stimuli/style-transfer-preprocessed-512\bird\bird3-cat1.png
googlenet,1,270,0,oven,bird,270,../stimuli/style-transfer-preprocessed-512\bird\bird3-dog1.png
googlenet,1,271,0,bottle,bird,271,../stimuli/style-transfer-preprocessed-512\bird\bird3-knife3.png
googlenet,1,272,0,bottle,bird,272,../stimuli/style-transfer-preprocessed-512\bird\bird3-oven1.png
googlenet,1,273,0,bottle,bird,273,../stimuli/style-transfer-preprocessed-512\bird\bird3-truck3.png
googlenet,1,274,0,knife,bird,274,../stimuli/style-transfer-preprocessed-512\bird\bird4-airplane1.png
googlenet,1,275,0,knife,bird,275,../stimuli/style-transfer-preprocessed-512\bird\bird4-bicycle2.png
googlenet,1,276,0,knife,bird,276,../stimuli/style-transfer-preprocessed-512\bird\bird4-cat3.png
googlenet,1,277,0,knife,bird,277,../stimuli/style-transfer-preprocessed-512\bird\bird4-clock1.png
googlenet,1,278,0,bottle,bird,278,../stimuli/style-transfer-preprocessed-512\bird\bird4-dog3.png
googlenet,1,279,0,elephant,bird,279,../stimuli/style-transfer-preprocessed-512\bird\bird5-airplane3.png
googlenet,1,280,0,oven,bird,280,../stimuli/style-transfer-preprocessed-512\bird\bird5-bear3.png
googlenet,1,281,0,bottle,bird,281,../stimuli/style-transfer-preprocessed-512\bird\bird5-bicycle1.png
googlenet,1,282,0,truck,bird,282,../stimuli/style-transfer-preprocessed-512\bird\bird5-bird1.png
googlenet,1,283,0,knife,bird,283,../stimuli/style-transfer-preprocessed-512\bird\bird5-car2.png
googlenet,1,284,0,clock,bird,284,../stimuli/style-transfer-preprocessed-512\bird\bird5-cat2.png
googlenet,1,285,0,knife,bird,285,../stimuli/style-transfer-preprocessed-512\bird\bird5-chair1.png
googlenet,1,286,0,knife,bird,286,../stimuli/style-transfer-preprocessed-512\bird\bird5-dog2.png
googlenet,1,287,0,bottle,bird,287,../stimuli/style-transfer-preprocessed-512\bird\bird5-keyboard2.png
googlenet,1,288,0,clock,bird,288,../stimuli/style-transfer-preprocessed-512\bird\bird5-oven3.png
googlenet,1,289,0,clock,bird,289,../stimuli/style-transfer-preprocessed-512\bird\bird5-truck2.png
googlenet,1,290,0,elephant,bird,290,../stimuli/style-transfer-preprocessed-512\bird\bird6-airplane2.png
googlenet,1,291,0,knife,bird,291,../stimuli/style-transfer-preprocessed-512\bird\bird6-boat2.png
googlenet,1,292,0,knife,bird,292,../stimuli/style-transfer-preprocessed-512\bird\bird6-bottle3.png
googlenet,1,293,0,bottle,bird,293,../stimuli/style-transfer-preprocessed-512\bird\bird6-car3.png
googlenet,1,294,0,oven,bird,294,../stimuli/style-transfer-preprocessed-512\bird\bird6-elephant2.png
googlenet,1,295,0,chair,bird,295,../stimuli/style-transfer-preprocessed-512\bird\bird6-oven1.png
googlenet,1,296,0,bottle,bird,296,../stimuli/style-transfer-preprocessed-512\bird\bird6-truck2.png
googlenet,1,297,0,clock,bird,297,../stimuli/style-transfer-preprocessed-512\bird\bird7-bird2.png
googlenet,1,298,0,elephant,bird,298,../stimuli/style-transfer-preprocessed-512\bird\bird7-boat1.png
googlenet,1,299,0,elephant,bird,299,../stimuli/style-transfer-preprocessed-512\bird\bird7-bottle1.png
googlenet,1,300,0,chair,bird,300,../stimuli/style-transfer-preprocessed-512\bird\bird7-car2.png
googlenet,1,301,0,knife,bird,301,../stimuli/style-transfer-preprocessed-512\bird\bird7-cat3.png
googlenet,1,302,0,oven,bird,302,../stimuli/style-transfer-preprocessed-512\bird\bird7-keyboard3.png
googlenet,1,303,0,clock,bird,303,../stimuli/style-transfer-preprocessed-512\bird\bird7-knife2.png
googlenet,1,304,0,bottle,bird,304,../stimuli/style-transfer-preprocessed-512\bird\bird7-oven3.png
googlenet,1,305,0,knife,bird,305,../stimuli/style-transfer-preprocessed-512\bird\bird7-truck2.png
googlenet,1,306,0,oven,bird,306,../stimuli/style-transfer-preprocessed-512\bird\bird8-boat3.png
googlenet,1,307,0,bottle,bird,307,../stimuli/style-transfer-preprocessed-512\bird\bird8-bottle1.png
googlenet,1,308,0,knife,bird,308,../stimuli/style-transfer-preprocessed-512\bird\bird8-car2.png
googlenet,1,309,0,knife,bird,309,../stimuli/style-transfer-preprocessed-512\bird\bird8-chair1.png
googlenet,1,310,0,airplane,bird,310,../stimuli/style-transfer-preprocessed-512\bird\bird8-clock1.png
googlenet,1,311,0,chair,bird,311,../stimuli/style-transfer-preprocessed-512\bird\bird8-elephant1.png
googlenet,1,312,0,bottle,bird,312,../stimuli/style-transfer-preprocessed-512\bird\bird8-keyboard2.png
googlenet,1,313,0,keyboard,bird,313,../stimuli/style-transfer-preprocessed-512\bird\bird8-knife2.png
googlenet,1,314,0,bicycle,bird,314,../stimuli/style-transfer-preprocessed-512\bird\bird9-bear3.png
googlenet,1,315,0,chair,bird,315,../stimuli/style-transfer-preprocessed-512\bird\bird9-bicycle3.png
googlenet,1,316,0,truck,bird,316,../stimuli/style-transfer-preprocessed-512\bird\bird9-bottle3.png
googlenet,1,317,0,bottle,bird,317,../stimuli/style-transfer-preprocessed-512\bird\bird9-chair1.png
googlenet,1,318,0,elephant,bird,318,../stimuli/style-transfer-preprocessed-512\bird\bird9-dog2.png
googlenet,1,319,0,elephant,bird,319,../stimuli/style-transfer-preprocessed-512\bird\bird9-elephant2.png
googlenet,1,320,0,oven,bird,320,../stimuli/style-transfer-preprocessed-512\bird\bird9-keyboard1.png
googlenet,1,321,0,chair,boat,321,../stimuli/style-transfer-preprocessed-512\boat\boat1-bear1.png
googlenet,1,322,0,keyboard,boat,322,../stimuli/style-transfer-preprocessed-512\boat\boat1-bicycle2.png
googlenet,1,323,0,bottle,boat,323,../stimuli/style-transfer-preprocessed-512\boat\boat1-bird3.png
googlenet,1,324,0,knife,boat,324,../stimuli/style-transfer-preprocessed-512\boat\boat1-car2.png
googlenet,1,325,0,bottle,boat,325,../stimuli/style-transfer-preprocessed-512\boat\boat1-chair3.png
googlenet,1,326,0,oven,boat,326,../stimuli/style-transfer-preprocessed-512\boat\boat1-elephant3.png
googlenet,1,327,0,keyboard,boat,327,../stimuli/style-transfer-preprocessed-512\boat\boat1-keyboard3.png
googlenet,1,328,0,clock,boat,328,../stimuli/style-transfer-preprocessed-512\boat\boat1-oven1.png
googlenet,1,329,0,knife,boat,329,../stimuli/style-transfer-preprocessed-512\boat\boat1-truck3.png
googlenet,1,330,0,knife,boat,330,../stimuli/style-transfer-preprocessed-512\boat\boat10-bear3.png
googlenet,1,331,0,keyboard,boat,331,../stimuli/style-transfer-preprocessed-512\boat\boat10-boat3.png
googlenet,1,332,0,cat,boat,332,../stimuli/style-transfer-preprocessed-512\boat\boat10-cat1.png
googlenet,1,333,0,bottle,boat,333,../stimuli/style-transfer-preprocessed-512\boat\boat10-oven1.png
googlenet,1,334,0,oven,boat,334,../stimuli/style-transfer-preprocessed-512\boat\boat10-truck1.png
googlenet,1,335,0,knife,boat,335,../stimuli/style-transfer-preprocessed-512\boat\boat2-airplane1.png
googlenet,1,336,0,airplane,boat,336,../stimuli/style-transfer-preprocessed-512\boat\boat2-bear3.png
googlenet,1,337,0,chair,boat,337,../stimuli/style-transfer-preprocessed-512\boat\boat2-bird1.png
googlenet,1,338,0,clock,boat,338,../stimuli/style-transfer-preprocessed-512\boat\boat2-bottle2.png
googlenet,1,339,0,elephant,boat,339,../stimuli/style-transfer-preprocessed-512\boat\boat2-keyboard1.png
googlenet,1,340,0,bottle,boat,340,../stimuli/style-transfer-preprocessed-512\boat\boat2-oven3.png
googlenet,1,341,0,clock,boat,341,../stimuli/style-transfer-preprocessed-512\boat\boat3-airplane2.png
googlenet,1,342,0,knife,boat,342,../stimuli/style-transfer-preprocessed-512\boat\boat3-bicycle2.png
googlenet,1,343,0,knife,boat,343,../stimuli/style-transfer-preprocessed-512\boat\boat3-car3.png
googlenet,1,344,0,clock,boat,344,../stimuli/style-transfer-preprocessed-512\boat\boat3-cat3.png
googlenet,1,345,0,bottle,boat,345,../stimuli/style-transfer-preprocessed-512\boat\boat3-chair3.png
googlenet,1,346,0,knife,boat,346,../stimuli/style-transfer-preprocessed-512\boat\boat3-clock3.png
googlenet,1,347,0,knife,boat,347,../stimuli/style-transfer-preprocessed-512\boat\boat3-dog3.png
googlenet,1,348,0,clock,boat,348,../stimuli/style-transfer-preprocessed-512\boat\boat3-keyboard2.png
googlenet,1,349,0,keyboard,boat,349,../stimuli/style-transfer-preprocessed-512\boat\boat4-bicycle3.png
googlenet,1,350,0,clock,boat,350,../stimuli/style-transfer-preprocessed-512\boat\boat4-bird1.png
googlenet,1,351,0,bottle,boat,351,../stimuli/style-transfer-preprocessed-512\boat\boat4-boat3.png
googlenet,1,352,0,clock,boat,352,../stimuli/style-transfer-preprocessed-512\boat\boat4-bottle2.png
googlenet,1,353,0,oven,boat,353,../stimuli/style-transfer-preprocessed-512\boat\boat4-car3.png
googlenet,1,354,0,bottle,boat,354,../stimuli/style-transfer-preprocessed-512\boat\boat4-chair2.png
googlenet,1,355,0,clock,boat,355,../stimuli/style-transfer-preprocessed-512\boat\boat4-dog2.png
googlenet,1,356,0,elephant,boat,356,../stimuli/style-transfer-preprocessed-512\boat\boat4-elephant2.png
googlenet,1,357,0,clock,boat,357,../stimuli/style-transfer-preprocessed-512\boat\boat4-knife2.png
googlenet,1,358,0,knife,boat,358,../stimuli/style-transfer-preprocessed-512\boat\boat5-airplane1.png
googlenet,1,359,0,knife,boat,359,../stimuli/style-transfer-preprocessed-512\boat\boat5-bicycle3.png
googlenet,1,360,0,oven,boat,360,../stimuli/style-transfer-preprocessed-512\boat\boat5-boat3.png
googlenet,1,361,0,dog,boat,361,../stimuli/style-transfer-preprocessed-512\boat\boat5-car3.png
googlenet,1,362,0,oven,boat,362,../stimuli/style-transfer-preprocessed-512\boat\boat5-clock3.png
googlenet,1,363,0,elephant,boat,363,../stimuli/style-transfer-preprocessed-512\boat\boat5-knife2.png
googlenet,1,364,0,car,boat,364,../stimuli/style-transfer-preprocessed-512\boat\boat6-airplane2.png
googlenet,1,365,0,oven,boat,365,../stimuli/style-transfer-preprocessed-512\boat\boat6-bear1.png
googlenet,1,366,0,knife,boat,366,../stimuli/style-transfer-preprocessed-512\boat\boat6-bicycle2.png
googlenet,1,367,0,knife,boat,367,../stimuli/style-transfer-preprocessed-512\boat\boat6-bottle2.png
googlenet,1,368,0,keyboard,boat,368,../stimuli/style-transfer-preprocessed-512\boat\boat6-car1.png
googlenet,1,369,0,clock,boat,369,../stimuli/style-transfer-preprocessed-512\boat\boat6-cat1.png
googlenet,1,370,0,clock,boat,370,../stimuli/style-transfer-preprocessed-512\boat\boat6-clock2.png
googlenet,1,371,0,clock,boat,371,../stimuli/style-transfer-preprocessed-512\boat\boat6-dog1.png
googlenet,1,372,0,bottle,boat,372,../stimuli/style-transfer-preprocessed-512\boat\boat6-elephant2.png
googlenet,1,373,0,bottle,boat,373,../stimuli/style-transfer-preprocessed-512\boat\boat6-knife2.png
googlenet,1,374,0,knife,boat,374,../stimuli/style-transfer-preprocessed-512\boat\boat6-truck3.png
googlenet,1,375,0,bottle,boat,375,../stimuli/style-transfer-preprocessed-512\boat\boat7-boat2.png
googlenet,1,376,0,cat,boat,376,../stimuli/style-transfer-preprocessed-512\boat\boat7-bottle1.png
googlenet,1,377,0,clock,boat,377,../stimuli/style-transfer-preprocessed-512\boat\boat7-cat3.png
googlenet,1,378,0,oven,boat,378,../stimuli/style-transfer-preprocessed-512\boat\boat7-chair1.png
googlenet,1,379,0,knife,boat,379,../stimuli/style-transfer-preprocessed-512\boat\boat7-clock3.png
googlenet,1,380,0,oven,boat,380,../stimuli/style-transfer-preprocessed-512\boat\boat7-elephant3.png
googlenet,1,381,0,knife,boat,381,../stimuli/style-transfer-preprocessed-512\boat\boat7-keyboard3.png
googlenet,1,382,0,oven,boat,382,../stimuli/style-transfer-preprocessed-512\boat\boat7-oven3.png
googlenet,1,383,0,oven,boat,383,../stimuli/style-transfer-preprocessed-512\boat\boat7-truck2.png
googlenet,1,384,0,elephant,boat,384,../stimuli/style-transfer-preprocessed-512\boat\boat8-bird2.png
googlenet,1,385,0,clock,boat,385,../stimuli/style-transfer-preprocessed-512\boat\boat8-bottle1.png
googlenet,1,386,0,bottle,boat,386,../stimuli/style-transfer-preprocessed-512\boat\boat8-dog3.png
googlenet,1,387,0,clock,boat,387,../stimuli/style-transfer-preprocessed-512\boat\boat8-elephant1.png
googlenet,1,388,0,cat,boat,388,../stimuli/style-transfer-preprocessed-512\boat\boat8-knife1.png
googlenet,1,389,0,clock,boat,389,../stimuli/style-transfer-preprocessed-512\boat\boat8-oven1.png
googlenet,1,390,0,clock,boat,390,../stimuli/style-transfer-preprocessed-512\boat\boat8-truck2.png
googlenet,1,391,0,clock,boat,391,../stimuli/style-transfer-preprocessed-512\boat\boat9-airplane2.png
googlenet,1,392,0,knife,boat,392,../stimuli/style-transfer-preprocessed-512\boat\boat9-bear3.png
googlenet,1,393,0,bottle,boat,393,../stimuli/style-transfer-preprocessed-512\boat\boat9-bird1.png
googlenet,1,394,0,bottle,boat,394,../stimuli/style-transfer-preprocessed-512\boat\boat9-boat3.png
googlenet,1,395,0,cat,boat,395,../stimuli/style-transfer-preprocessed-512\boat\boat9-cat3.png
googlenet,1,396,0,bottle,boat,396,../stimuli/style-transfer-preprocessed-512\boat\boat9-chair2.png
googlenet,1,397,0,car,boat,397,../stimuli/style-transfer-preprocessed-512\boat\boat9-clock1.png
googlenet,1,398,0,clock,boat,398,../stimuli/style-transfer-preprocessed-512\boat\boat9-dog2.png
googlenet,1,399,0,knife,boat,399,../stimuli/style-transfer-preprocessed-512\boat\boat9-keyboard2.png
googlenet,1,400,0,bottle,boat,400,../stimuli/style-transfer-preprocessed-512\boat\boat9-knife2.png
googlenet,1,401,0,keyboard,bottle,401,../stimuli/style-transfer-preprocessed-512\bottle\bottle1-bear1.png
googlenet,1,402,0,oven,bottle,402,../stimuli/style-transfer-preprocessed-512\bottle\bottle1-bird3.png
googlenet,1,403,0,oven,bottle,403,../stimuli/style-transfer-preprocessed-512\bottle\bottle1-car1.png
googlenet,1,404,0,elephant,bottle,404,../stimuli/style-transfer-preprocessed-512\bottle\bottle1-cat3.png
googlenet,1,405,0,bottle,bottle,405,../stimuli/style-transfer-preprocessed-512\bottle\bottle1-chair2.png
googlenet,1,406,0,clock,bottle,406,../stimuli/style-transfer-preprocessed-512\bottle\bottle1-clock1.png
googlenet,1,407,0,knife,bottle,407,../stimuli/style-transfer-preprocessed-512\bottle\bottle1-dog2.png
googlenet,1,408,0,bottle,bottle,408,../stimuli/style-transfer-preprocessed-512\bottle\bottle1-keyboard3.png
googlenet,1,409,0,clock,bottle,409,../stimuli/style-transfer-preprocessed-512\bottle\bottle10-bear2.png
googlenet,1,410,0,bottle,bottle,410,../stimuli/style-transfer-preprocessed-512\bottle\bottle10-boat3.png
googlenet,1,411,0,keyboard,bottle,411,../stimuli/style-transfer-preprocessed-512\bottle\bottle10-car1.png
googlenet,1,412,0,bear,bottle,412,../stimuli/style-transfer-preprocessed-512\bottle\bottle10-clock2.png
googlenet,1,413,0,bottle,bottle,413,../stimuli/style-transfer-preprocessed-512\bottle\bottle10-dog1.png
googlenet,1,414,0,clock,bottle,414,../stimuli/style-transfer-preprocessed-512\bottle\bottle10-truck3.png
googlenet,1,415,0,knife,bottle,415,../stimuli/style-transfer-preprocessed-512\bottle\bottle2-bottle3.png
googlenet,1,416,0,bottle,bottle,416,../stimuli/style-transfer-preprocessed-512\bottle\bottle2-car2.png
googlenet,1,417,0,keyboard,bottle,417,../stimuli/style-transfer-preprocessed-512\bottle\bottle2-chair3.png
googlenet,1,418,0,clock,bottle,418,../stimuli/style-transfer-preprocessed-512\bottle\bottle2-clock1.png
googlenet,1,419,0,bottle,bottle,419,../stimuli/style-transfer-preprocessed-512\bottle\bottle2-elephant1.png
googlenet,1,420,0,elephant,bottle,420,../stimuli/style-transfer-preprocessed-512\bottle\bottle2-knife3.png
googlenet,1,421,0,knife,bottle,421,../stimuli/style-transfer-preprocessed-512\bottle\bottle3-airplane2.png
googlenet,1,422,0,bottle,bottle,422,../stimuli/style-transfer-preprocessed-512\bottle\bottle3-bear2.png
googlenet,1,423,0,bottle,bottle,423,../stimuli/style-transfer-preprocessed-512\bottle\bottle3-bicycle3.png
googlenet,1,424,0,knife,bottle,424,../stimuli/style-transfer-preprocessed-512\bottle\bottle3-bird1.png
googlenet,1,425,0,cat,bottle,425,../stimuli/style-transfer-preprocessed-512\bottle\bottle3-boat3.png
googlenet,1,426,0,knife,bottle,426,../stimuli/style-transfer-preprocessed-512\bottle\bottle3-bottle3.png
googlenet,1,427,0,knife,bottle,427,../stimuli/style-transfer-preprocessed-512\bottle\bottle3-cat3.png
googlenet,1,428,0,knife,bottle,428,../stimuli/style-transfer-preprocessed-512\bottle\bottle3-chair3.png
googlenet,1,429,0,bottle,bottle,429,../stimuli/style-transfer-preprocessed-512\bottle\bottle3-knife3.png
googlenet,1,430,0,airplane,bottle,430,../stimuli/style-transfer-preprocessed-512\bottle\bottle4-airplane1.png
googlenet,1,431,0,knife,bottle,431,../stimuli/style-transfer-preprocessed-512\bottle\bottle4-bicycle1.png
googlenet,1,432,0,knife,bottle,432,../stimuli/style-transfer-preprocessed-512\bottle\bottle4-car3.png
googlenet,1,433,0,bottle,bottle,433,../stimuli/style-transfer-preprocessed-512\bottle\bottle4-dog2.png
googlenet,1,434,0,bottle,bottle,434,../stimuli/style-transfer-preprocessed-512\bottle\bottle4-oven2.png
googlenet,1,435,0,airplane,bottle,435,../stimuli/style-transfer-preprocessed-512\bottle\bottle4-truck1.png
googlenet,1,436,0,bottle,bottle,436,../stimuli/style-transfer-preprocessed-512\bottle\bottle5-airplane1.png
googlenet,1,437,0,oven,bottle,437,../stimuli/style-transfer-preprocessed-512\bottle\bottle5-bird3.png
googlenet,1,438,0,keyboard,bottle,438,../stimuli/style-transfer-preprocessed-512\bottle\bottle5-boat1.png
googlenet,1,439,0,clock,bottle,439,../stimuli/style-transfer-preprocessed-512\bottle\bottle5-cat1.png
googlenet,1,440,0,oven,bottle,440,../stimuli/style-transfer-preprocessed-512\bottle\bottle5-chair1.png
googlenet,1,441,0,clock,bottle,441,../stimuli/style-transfer-preprocessed-512\bottle\bottle5-clock3.png
googlenet,1,442,0,knife,bottle,442,../stimuli/style-transfer-preprocessed-512\bottle\bottle5-elephant1.png
googlenet,1,443,0,clock,bottle,443,../stimuli/style-transfer-preprocessed-512\bottle\bottle5-keyboard2.png
googlenet,1,444,0,chair,bottle,444,../stimuli/style-transfer-preprocessed-512\bottle\bottle5-knife1.png
googlenet,1,445,0,oven,bottle,445,../stimuli/style-transfer-preprocessed-512\bottle\bottle5-oven2.png
googlenet,1,446,0,knife,bottle,446,../stimuli/style-transfer-preprocessed-512\bottle\bottle5-truck1.png
googlenet,1,447,0,oven,bottle,447,../stimuli/style-transfer-preprocessed-512\bottle\bottle6-airplane1.png
googlenet,1,448,0,knife,bottle,448,../stimuli/style-transfer-preprocessed-512\bottle\bottle6-bear2.png
googlenet,1,449,0,knife,bottle,449,../stimuli/style-transfer-preprocessed-512\bottle\bottle6-bicycle3.png
googlenet,1,450,0,knife,bottle,450,../stimuli/style-transfer-preprocessed-512\bottle\bottle6-bird1.png
googlenet,1,451,0,knife,bottle,451,../stimuli/style-transfer-preprocessed-512\bottle\bottle6-boat3.png
googlenet,1,452,0,bottle,bottle,452,../stimuli/style-transfer-preprocessed-512\bottle\bottle6-bottle3.png
googlenet,1,453,0,chair,bottle,453,../stimuli/style-transfer-preprocessed-512\bottle\bottle6-chair2.png
googlenet,1,454,0,clock,bottle,454,../stimuli/style-transfer-preprocessed-512\bottle\bottle6-dog3.png
googlenet,1,455,0,clock,bottle,455,../stimuli/style-transfer-preprocessed-512\bottle\bottle6-knife3.png
googlenet,1,456,0,knife,bottle,456,../stimuli/style-transfer-preprocessed-512\bottle\bottle6-oven3.png
googlenet,1,457,0,oven,bottle,457,../stimuli/style-transfer-preprocessed-512\bottle\bottle7-airplane3.png
googlenet,1,458,0,bottle,bottle,458,../stimuli/style-transfer-preprocessed-512\bottle\bottle7-bear1.png
googlenet,1,459,0,bottle,bottle,459,../stimuli/style-transfer-preprocessed-512\bottle\bottle7-boat3.png
googlenet,1,460,0,clock,bottle,460,../stimuli/style-transfer-preprocessed-512\bottle\bottle7-cat2.png
googlenet,1,461,0,bottle,bottle,461,../stimuli/style-transfer-preprocessed-512\bottle\bottle7-clock1.png
googlenet,1,462,0,clock,bottle,462,../stimuli/style-transfer-preprocessed-512\bottle\bottle7-elephant2.png
googlenet,1,463,0,keyboard,bottle,463,../stimuli/style-transfer-preprocessed-512\bottle\bottle7-keyboard2.png
googlenet,1,464,0,clock,bottle,464,../stimuli/style-transfer-preprocessed-512\bottle\bottle7-oven2.png
googlenet,1,465,0,knife,bottle,465,../stimuli/style-transfer-preprocessed-512\bottle\bottle7-truck2.png
googlenet,1,466,0,cat,bottle,466,../stimuli/style-transfer-preprocessed-512\bottle\bottle8-bicycle1.png
googlenet,1,467,0,keyboard,bottle,467,../stimuli/style-transfer-preprocessed-512\bottle\bottle8-bird1.png
googlenet,1,468,0,clock,bottle,468,../stimuli/style-transfer-preprocessed-512\bottle\bottle8-bottle3.png
googlenet,1,469,0,clock,bottle,469,../stimuli/style-transfer-preprocessed-512\bottle\bottle8-dog2.png
googlenet,1,470,0,boat,bottle,470,../stimuli/style-transfer-preprocessed-512\bottle\bottle8-elephant3.png
googlenet,1,471,0,clock,bottle,471,../stimuli/style-transfer-preprocessed-512\bottle\bottle8-keyboard3.png
googlenet,1,472,0,clock,bottle,472,../stimuli/style-transfer-preprocessed-512\bottle\bottle8-knife1.png
googlenet,1,473,0,bottle,bottle,473,../stimuli/style-transfer-preprocessed-512\bottle\bottle9-bicycle1.png
googlenet,1,474,0,keyboard,bottle,474,../stimuli/style-transfer-preprocessed-512\bottle\bottle9-bottle1.png
googlenet,1,475,0,bottle,bottle,475,../stimuli/style-transfer-preprocessed-512\bottle\bottle9-car3.png
googlenet,1,476,0,clock,bottle,476,../stimuli/style-transfer-preprocessed-512\bottle\bottle9-cat2.png
googlenet,1,477,0,chair,bottle,477,../stimuli/style-transfer-preprocessed-512\bottle\bottle9-elephant2.png
googlenet,1,478,0,oven,bottle,478,../stimuli/style-transfer-preprocessed-512\bottle\bottle9-keyboard1.png
googlenet,1,479,0,keyboard,bottle,479,../stimuli/style-transfer-preprocessed-512\bottle\bottle9-oven2.png
googlenet,1,480,0,clock,bottle,480,../stimuli/style-transfer-preprocessed-512\bottle\bottle9-truck1.png
googlenet,1,481,0,elephant,car,481,../stimuli/style-transfer-preprocessed-512\car\car1-airplane1.png
googlenet,1,482,0,clock,car,482,../stimuli/style-transfer-preprocessed-512\car\car1-car2.png
googlenet,1,483,0,oven,car,483,../stimuli/style-transfer-preprocessed-512\car\car1-chair3.png
googlenet,1,484,0,bear,car,484,../stimuli/style-transfer-preprocessed-512\car\car1-clock2.png
googlenet,1,485,0,chair,car,485,../stimuli/style-transfer-preprocessed-512\car\car1-dog2.png
googlenet,1,486,0,knife,car,486,../stimuli/style-transfer-preprocessed-512\car\car1-keyboard2.png
googlenet,1,487,0,oven,car,487,../stimuli/style-transfer-preprocessed-512\car\car1-oven3.png
googlenet,1,488,0,clock,car,488,../stimuli/style-transfer-preprocessed-512\car\car10-bicycle2.png
googlenet,1,489,0,knife,car,489,../stimuli/style-transfer-preprocessed-512\car\car10-bottle3.png
googlenet,1,490,0,chair,car,490,../stimuli/style-transfer-preprocessed-512\car\car10-car1.png
googlenet,1,491,0,knife,car,491,../stimuli/style-transfer-preprocessed-512\car\car10-chair1.png
googlenet,1,492,0,clock,car,492,../stimuli/style-transfer-preprocessed-512\car\car10-dog1.png
googlenet,1,493,0,clock,car,493,../stimuli/style-transfer-preprocessed-512\car\car10-elephant2.png
googlenet,1,494,0,bottle,car,494,../stimuli/style-transfer-preprocessed-512\car\car10-keyboard2.png
googlenet,1,495,0,bottle,car,495,../stimuli/style-transfer-preprocessed-512\car\car2-bird3.png
googlenet,1,496,0,bottle,car,496,../stimuli/style-transfer-preprocessed-512\car\car2-car3.png
googlenet,1,497,0,clock,car,497,../stimuli/style-transfer-preprocessed-512\car\car2-cat3.png
googlenet,1,498,0,keyboard,car,498,../stimuli/style-transfer-preprocessed-512\car\car2-chair1.png
googlenet,1,499,0,clock,car,499,../stimuli/style-transfer-preprocessed-512\car\car2-knife3.png
googlenet,1,500,0,knife,car,500,../stimuli/style-transfer-preprocessed-512\car\car3-airplane3.png
googlenet,1,501,0,bottle,car,501,../stimuli/style-transfer-preprocessed-512\car\car3-bird2.png
googlenet,1,502,0,clock,car,502,../stimuli/style-transfer-preprocessed-512\car\car3-boat1.png
googlenet,1,503,0,bottle,car,503,../stimuli/style-transfer-preprocessed-512\car\car3-bottle3.png
googlenet,1,504,0,bottle,car,504,../stimuli/style-transfer-preprocessed-512\car\car3-dog2.png
googlenet,1,505,0,bottle,car,505,../stimuli/style-transfer-preprocessed-512\car\car3-elephant3.png
googlenet,1,506,0,knife,car,506,../stimuli/style-transfer-preprocessed-512\car\car3-oven3.png
googlenet,1,507,0,knife,car,507,../stimuli/style-transfer-preprocessed-512\car\car3-truck1.png
googlenet,1,508,0,bottle,car,508,../stimuli/style-transfer-preprocessed-512\car\car4-bear3.png
googlenet,1,509,0,elephant,car,509,../stimuli/style-transfer-preprocessed-512\car\car4-bicycle3.png
googlenet,1,510,0,bottle,car,510,../stimuli/style-transfer-preprocessed-512\car\car4-bird1.png
googlenet,1,511,0,bottle,car,511,../stimuli/style-transfer-preprocessed-512\car\car4-boat1.png
googlenet,1,512,0,knife,car,512,../stimuli/style-transfer-preprocessed-512\car\car4-bottle1.png
googlenet,1,513,0,clock,car,513,../stimuli/style-transfer-preprocessed-512\car\car4-car2.png
googlenet,1,514,0,knife,car,514,../stimuli/style-transfer-preprocessed-512\car\car4-cat3.png
googlenet,1,515,0,bottle,car,515,../stimuli/style-transfer-preprocessed-512\car\car4-clock1.png
googlenet,1,516,0,bottle,car,516,../stimuli/style-transfer-preprocessed-512\car\car4-elephant3.png
googlenet,1,517,0,truck,car,517,../stimuli/style-transfer-preprocessed-512\car\car4-oven2.png
googlenet,1,518,0,bottle,car,518,../stimuli/style-transfer-preprocessed-512\car\car5-airplane3.png
googlenet,1,519,0,keyboard,car,519,../stimuli/style-transfer-preprocessed-512\car\car5-bear3.png
googlenet,1,520,0,bottle,car,520,../stimuli/style-transfer-preprocessed-512\car\car5-bottle1.png
googlenet,1,521,0,oven,car,521,../stimuli/style-transfer-preprocessed-512\car\car5-cat1.png
googlenet,1,522,0,bottle,car,522,../stimuli/style-transfer-preprocessed-512\car\car5-keyboard3.png
googlenet,1,523,0,bottle,car,523,../stimuli/style-transfer-preprocessed-512\car\car5-knife2.png
googlenet,1,524,0,knife,car,524,../stimuli/style-transfer-preprocessed-512\car\car5-oven2.png
googlenet,1,525,0,knife,car,525,../stimuli/style-transfer-preprocessed-512\car\car5-truck3.png
googlenet,1,526,0,dog,car,526,../stimuli/style-transfer-preprocessed-512\car\car6-bear1.png
googlenet,1,527,0,clock,car,527,../stimuli/style-transfer-preprocessed-512\car\car6-bicycle3.png
googlenet,1,528,0,oven,car,528,../stimuli/style-transfer-preprocessed-512\car\car6-boat1.png
googlenet,1,529,0,knife,car,529,../stimuli/style-transfer-preprocessed-512\car\car6-bottle1.png
googlenet,1,530,0,keyboard,car,530,../stimuli/style-transfer-preprocessed-512\car\car6-chair3.png
googlenet,1,531,0,bottle,car,531,../stimuli/style-transfer-preprocessed-512\car\car6-elephant3.png
googlenet,1,532,0,knife,car,532,../stimuli/style-transfer-preprocessed-512\car\car6-knife1.png
googlenet,1,533,0,clock,car,533,../stimuli/style-transfer-preprocessed-512\car\car6-truck3.png
googlenet,1,534,0,clock,car,534,../stimuli/style-transfer-preprocessed-512\car\car7-airplane2.png
googlenet,1,535,0,elephant,car,535,../stimuli/style-transfer-preprocessed-512\car\car7-bear1.png
googlenet,1,536,0,elephant,car,536,../stimuli/style-transfer-preprocessed-512\car\car7-bird3.png
googlenet,1,537,0,keyboard,car,537,../stimuli/style-transfer-preprocessed-512\car\car7-boat3.png
googlenet,1,538,0,bottle,car,538,../stimuli/style-transfer-preprocessed-512\car\car7-car1.png
googlenet,1,539,0,bottle,car,539,../stimuli/style-transfer-preprocessed-512\car\car7-clock1.png
googlenet,1,540,0,bottle,car,540,../stimuli/style-transfer-preprocessed-512\car\car7-dog3.png
googlenet,1,541,0,truck,car,541,../stimuli/style-transfer-preprocessed-512\car\car7-elephant3.png
googlenet,1,542,0,oven,car,542,../stimuli/style-transfer-preprocessed-512\car\car7-keyboard3.png
googlenet,1,543,0,clock,car,543,../stimuli/style-transfer-preprocessed-512\car\car7-oven2.png
googlenet,1,544,0,bottle,car,544,../stimuli/style-transfer-preprocessed-512\car\car8-airplane3.png
googlenet,1,545,0,knife,car,545,../stimuli/style-transfer-preprocessed-512\car\car8-bear1.png
googlenet,1,546,0,cat,car,546,../stimuli/style-transfer-preprocessed-512\car\car8-bicycle2.png
googlenet,1,547,0,bottle,car,547,../stimuli/style-transfer-preprocessed-512\car\car8-boat3.png
googlenet,1,548,0,knife,car,548,../stimuli/style-transfer-preprocessed-512\car\car8-cat1.png
googlenet,1,549,0,knife,car,549,../stimuli/style-transfer-preprocessed-512\car\car8-chair1.png
googlenet,1,550,0,knife,car,550,../stimuli/style-transfer-preprocessed-512\car\car8-clock2.png
googlenet,1,551,0,clock,car,551,../stimuli/style-transfer-preprocessed-512\car\car8-dog1.png
googlenet,1,552,0,knife,car,552,../stimuli/style-transfer-preprocessed-512\car\car8-knife2.png
googlenet,1,553,0,elephant,car,553,../stimuli/style-transfer-preprocessed-512\car\car8-truck3.png
googlenet,1,554,0,knife,car,554,../stimuli/style-transfer-preprocessed-512\car\car9-bicycle2.png
googlenet,1,555,0,keyboard,car,555,../stimuli/style-transfer-preprocessed-512\car\car9-bird1.png
googlenet,1,556,0,bottle,car,556,../stimuli/style-transfer-preprocessed-512\car\car9-cat1.png
googlenet,1,557,0,clock,car,557,../stimuli/style-transfer-preprocessed-512\car\car9-clock2.png
googlenet,1,558,0,knife,car,558,../stimuli/style-transfer-preprocessed-512\car\car9-keyboard2.png
googlenet,1,559,0,knife,car,559,../stimuli/style-transfer-preprocessed-512\car\car9-knife1.png
googlenet,1,560,0,cat,car,560,../stimuli/style-transfer-preprocessed-512\car\car9-truck3.png
googlenet,1,561,0,truck,cat,561,../stimuli/style-transfer-preprocessed-512\cat\cat1-airplane1.png
googlenet,1,562,0,chair,cat,562,../stimuli/style-transfer-preprocessed-512\cat\cat1-bird1.png
googlenet,1,563,0,knife,cat,563,../stimuli/style-transfer-preprocessed-512\cat\cat1-boat1.png
googlenet,1,564,0,elephant,cat,564,../stimuli/style-transfer-preprocessed-512\cat\cat1-car2.png
googlenet,1,565,0,keyboard,cat,565,../stimuli/style-transfer-preprocessed-512\cat\cat1-cat3.png
googlenet,1,566,0,keyboard,cat,566,../stimuli/style-transfer-preprocessed-512\cat\cat1-chair2.png
googlenet,1,567,0,chair,cat,567,../stimuli/style-transfer-preprocessed-512\cat\cat1-dog1.png
googlenet,1,568,0,bottle,cat,568,../stimuli/style-transfer-preprocessed-512\cat\cat1-keyboard3.png
googlenet,1,569,0,airplane,cat,569,../stimuli/style-transfer-preprocessed-512\cat\cat1-oven1.png
googlenet,1,570,0,knife,cat,570,../stimuli/style-transfer-preprocessed-512\cat\cat10-airplane3.png
googlenet,1,571,0,clock,cat,571,../stimuli/style-transfer-preprocessed-512\cat\cat10-bear1.png
googlenet,1,572,0,knife,cat,572,../stimuli/style-transfer-preprocessed-512\cat\cat10-bicycle1.png
googlenet,1,573,0,keyboard,cat,573,../stimuli/style-transfer-preprocessed-512\cat\cat10-bird2.png
googlenet,1,574,0,bottle,cat,574,../stimuli/style-transfer-preprocessed-512\cat\cat10-bottle1.png
googlenet,1,575,0,chair,cat,575,../stimuli/style-transfer-preprocessed-512\cat\cat10-clock1.png
googlenet,1,576,0,bottle,cat,576,../stimuli/style-transfer-preprocessed-512\cat\cat10-elephant3.png
googlenet,1,577,0,chair,cat,577,../stimuli/style-transfer-preprocessed-512\cat\cat10-keyboard1.png
googlenet,1,578,0,knife,cat,578,../stimuli/style-transfer-preprocessed-512\cat\cat10-oven2.png
googlenet,1,579,0,chair,cat,579,../stimuli/style-transfer-preprocessed-512\cat\cat2-boat2.png
googlenet,1,580,0,bottle,cat,580,../stimuli/style-transfer-preprocessed-512\cat\cat2-bottle3.png
googlenet,1,581,0,clock,cat,581,../stimuli/style-transfer-preprocessed-512\cat\cat2-car3.png
googlenet,1,582,0,keyboard,cat,582,../stimuli/style-transfer-preprocessed-512\cat\cat2-cat1.png
googlenet,1,583,0,oven,cat,583,../stimuli/style-transfer-preprocessed-512\cat\cat2-elephant1.png
googlenet,1,584,0,bicycle,cat,584,../stimuli/style-transfer-preprocessed-512\cat\cat2-knife3.png
googlenet,1,585,0,knife,cat,585,../stimuli/style-transfer-preprocessed-512\cat\cat2-truck3.png
googlenet,1,586,0,chair,cat,586,../stimuli/style-transfer-preprocessed-512\cat\cat3-bear2.png
googlenet,1,587,0,clock,cat,587,../stimuli/style-transfer-preprocessed-512\cat\cat3-bicycle1.png
googlenet,1,588,0,keyboard,cat,588,../stimuli/style-transfer-preprocessed-512\cat\cat3-cat1.png
googlenet,1,589,0,clock,cat,589,../stimuli/style-transfer-preprocessed-512\cat\cat3-elephant2.png
googlenet,1,590,0,clock,cat,590,../stimuli/style-transfer-preprocessed-512\cat\cat3-oven2.png
googlenet,1,591,0,clock,cat,591,../stimuli/style-transfer-preprocessed-512\cat\cat3-truck3.png
googlenet,1,592,0,bottle,cat,592,../stimuli/style-transfer-preprocessed-512\cat\cat4-airplane1.png
googlenet,1,593,0,bottle,cat,593,../stimuli/style-transfer-preprocessed-512\cat\cat4-bird2.png
googlenet,1,594,0,clock,cat,594,../stimuli/style-transfer-preprocessed-512\cat\cat4-car2.png
googlenet,1,595,0,knife,cat,595,../stimuli/style-transfer-preprocessed-512\cat\cat4-cat3.png
googlenet,1,596,0,oven,cat,596,../stimuli/style-transfer-preprocessed-512\cat\cat4-chair2.png
googlenet,1,597,0,knife,cat,597,../stimuli/style-transfer-preprocessed-512\cat\cat4-clock2.png
googlenet,1,598,0,cat,cat,598,../stimuli/style-transfer-preprocessed-512\cat\cat4-dog3.png
googlenet,1,599,0,bottle,cat,599,../stimuli/style-transfer-preprocessed-512\cat\cat4-keyboard2.png
googlenet,1,600,0,knife,cat,600,../stimuli/style-transfer-preprocessed-512\cat\cat4-knife1.png
googlenet,1,601,0,bicycle,cat,601,../stimuli/style-transfer-preprocessed-512\cat\cat4-oven1.png
googlenet,1,602,0,keyboard,cat,602,../stimuli/style-transfer-preprocessed-512\cat\cat4-truck3.png
googlenet,1,603,0,bottle,cat,603,../stimuli/style-transfer-preprocessed-512\cat\cat5-airplane2.png
googlenet,1,604,0,clock,cat,604,../stimuli/style-transfer-preprocessed-512\cat\cat5-bear2.png
googlenet,1,605,0,clock,cat,605,../stimuli/style-transfer-preprocessed-512\cat\cat5-bicycle3.png
googlenet,1,606,0,knife,cat,606,../stimuli/style-transfer-preprocessed-512\cat\cat5-boat1.png
googlenet,1,607,0,bottle,cat,607,../stimuli/style-transfer-preprocessed-512\cat\cat5-bottle1.png
googlenet,1,608,0,clock,cat,608,../stimuli/style-transfer-preprocessed-512\cat\cat5-car2.png
googlenet,1,609,0,knife,cat,609,../stimuli/style-transfer-preprocessed-512\cat\cat5-chair3.png
googlenet,1,610,0,clock,cat,610,../stimuli/style-transfer-preprocessed-512\cat\cat5-dog3.png
googlenet,1,611,0,bottle,cat,611,../stimuli/style-transfer-preprocessed-512\cat\cat5-elephant2.png
googlenet,1,612,0,bicycle,cat,612,../stimuli/style-transfer-preprocessed-512\cat\cat5-keyboard3.png
googlenet,1,613,0,clock,cat,613,../stimuli/style-transfer-preprocessed-512\cat\cat5-knife2.png
googlenet,1,614,0,bottle,cat,614,../stimuli/style-transfer-preprocessed-512\cat\cat6-bear1.png
googlenet,1,615,0,knife,cat,615,../stimuli/style-transfer-preprocessed-512\cat\cat6-chair3.png
googlenet,1,616,0,clock,cat,616,../stimuli/style-transfer-preprocessed-512\cat\cat6-clock3.png
googlenet,1,617,0,knife,cat,617,../stimuli/style-transfer-preprocessed-512\cat\cat6-keyboard3.png
googlenet,1,618,0,keyboard,cat,618,../stimuli/style-transfer-preprocessed-512\cat\cat6-oven1.png
googlenet,1,619,0,clock,cat,619,../stimuli/style-transfer-preprocessed-512\cat\cat7-airplane2.png
googlenet,1,620,0,bird,cat,620,../stimuli/style-transfer-preprocessed-512\cat\cat7-boat3.png
googlenet,1,621,0,clock,cat,621,../stimuli/style-transfer-preprocessed-512\cat\cat7-bottle1.png
googlenet,1,622,0,knife,cat,622,../stimuli/style-transfer-preprocessed-512\cat\cat7-clock3.png
googlenet,1,623,0,clock,cat,623,../stimuli/style-transfer-preprocessed-512\cat\cat7-dog3.png
googlenet,1,624,0,oven,cat,624,../stimuli/style-transfer-preprocessed-512\cat\cat7-elephant1.png
googlenet,1,625,0,oven,cat,625,../stimuli/style-transfer-preprocessed-512\cat\cat7-knife2.png
googlenet,1,626,0,knife,cat,626,../stimuli/style-transfer-preprocessed-512\cat\cat7-truck2.png
googlenet,1,627,0,elephant,cat,627,../stimuli/style-transfer-preprocessed-512\cat\cat8-bear1.png
googlenet,1,628,0,clock,cat,628,../stimuli/style-transfer-preprocessed-512\cat\cat8-bicycle3.png
googlenet,1,629,0,bottle,cat,629,../stimuli/style-transfer-preprocessed-512\cat\cat8-bird2.png
googlenet,1,630,0,knife,cat,630,../stimuli/style-transfer-preprocessed-512\cat\cat8-car2.png
googlenet,1,631,0,knife,cat,631,../stimuli/style-transfer-preprocessed-512\cat\cat9-bicycle1.png
googlenet,1,632,0,bottle,cat,632,../stimuli/style-transfer-preprocessed-512\cat\cat9-bird3.png
googlenet,1,633,0,bicycle,cat,633,../stimuli/style-transfer-preprocessed-512\cat\cat9-boat2.png
googlenet,1,634,0,bear,cat,634,../stimuli/style-transfer-preprocessed-512\cat\cat9-bottle2.png
googlenet,1,635,0,knife,cat,635,../stimuli/style-transfer-preprocessed-512\cat\cat9-cat3.png
googlenet,1,636,0,chair,cat,636,../stimuli/style-transfer-preprocessed-512\cat\cat9-chair2.png
googlenet,1,637,0,bottle,cat,637,../stimuli/style-transfer-preprocessed-512\cat\cat9-clock2.png
googlenet,1,638,0,oven,cat,638,../stimuli/style-transfer-preprocessed-512\cat\cat9-dog2.png
googlenet,1,639,0,knife,cat,639,../stimuli/style-transfer-preprocessed-512\cat\cat9-knife2.png
googlenet,1,640,0,oven,cat,640,../stimuli/style-transfer-preprocessed-512\cat\cat9-truck1.png
googlenet,1,641,0,bottle,chair,641,../stimuli/style-transfer-preprocessed-512\chair\chair1-airplane2.png
googlenet,1,642,0,chair,chair,642,../stimuli/style-transfer-preprocessed-512\chair\chair1-bear1.png
googlenet,1,643,0,bottle,chair,643,../stimuli/style-transfer-preprocessed-512\chair\chair1-cat3.png
googlenet,1,644,0,cat,chair,644,../stimuli/style-transfer-preprocessed-512\chair\chair1-chair1.png
googlenet,1,645,0,knife,chair,645,../stimuli/style-transfer-preprocessed-512\chair\chair1-clock2.png
googlenet,1,646,0,clock,chair,646,../stimuli/style-transfer-preprocessed-512\chair\chair1-dog1.png
googlenet,1,647,0,oven,chair,647,../stimuli/style-transfer-preprocessed-512\chair\chair1-elephant1.png
googlenet,1,648,0,clock,chair,648,../stimuli/style-transfer-preprocessed-512\chair\chair1-oven3.png
googlenet,1,649,0,clock,chair,649,../stimuli/style-transfer-preprocessed-512\chair\chair1-truck3.png
googlenet,1,650,0,knife,chair,650,../stimuli/style-transfer-preprocessed-512\chair\chair10-airplane2.png
googlenet,1,651,0,clock,chair,651,../stimuli/style-transfer-preprocessed-512\chair\chair10-bicycle1.png
googlenet,1,652,0,clock,chair,652,../stimuli/style-transfer-preprocessed-512\chair\chair10-bird3.png
googlenet,1,653,0,clock,chair,653,../stimuli/style-transfer-preprocessed-512\chair\chair10-bottle3.png
googlenet,1,654,0,truck,chair,654,../stimuli/style-transfer-preprocessed-512\chair\chair10-car2.png
googlenet,1,655,0,keyboard,chair,655,../stimuli/style-transfer-preprocessed-512\chair\chair10-cat1.png
googlenet,1,656,0,knife,chair,656,../stimuli/style-transfer-preprocessed-512\chair\chair10-clock1.png
googlenet,1,657,0,clock,chair,657,../stimuli/style-transfer-preprocessed-512\chair\chair10-dog1.png
googlenet,1,658,0,chair,chair,658,../stimuli/style-transfer-preprocessed-512\chair\chair10-oven1.png
googlenet,1,659,0,bottle,chair,659,../stimuli/style-transfer-preprocessed-512\chair\chair2-bear2.png
googlenet,1,660,0,keyboard,chair,660,../stimuli/style-transfer-preprocessed-512\chair\chair2-boat1.png
googlenet,1,661,0,knife,chair,661,../stimuli/style-transfer-preprocessed-512\chair\chair2-keyboard2.png
googlenet,1,662,0,bottle,chair,662,../stimuli/style-transfer-preprocessed-512\chair\chair2-knife1.png
googlenet,1,663,0,clock,chair,663,../stimuli/style-transfer-preprocessed-512\chair\chair3-airplane2.png
googlenet,1,664,0,keyboard,chair,664,../stimuli/style-transfer-preprocessed-512\chair\chair3-bicycle3.png
googlenet,1,665,0,bottle,chair,665,../stimuli/style-transfer-preprocessed-512\chair\chair3-bottle3.png
googlenet,1,666,0,clock,chair,666,../stimuli/style-transfer-preprocessed-512\chair\chair3-car3.png
googlenet,1,667,0,knife,chair,667,../stimuli/style-transfer-preprocessed-512\chair\chair3-dog2.png
googlenet,1,668,0,oven,chair,668,../stimuli/style-transfer-preprocessed-512\chair\chair3-knife1.png
googlenet,1,669,0,clock,chair,669,../stimuli/style-transfer-preprocessed-512\chair\chair4-bear2.png
googlenet,1,670,0,elephant,chair,670,../stimuli/style-transfer-preprocessed-512\chair\chair4-cat2.png
googlenet,1,671,0,elephant,chair,671,../stimuli/style-transfer-preprocessed-512\chair\chair4-chair3.png
googlenet,1,672,0,bottle,chair,672,../stimuli/style-transfer-preprocessed-512\chair\chair4-keyboard2.png
googlenet,1,673,0,knife,chair,673,../stimuli/style-transfer-preprocessed-512\chair\chair4-oven2.png
googlenet,1,674,0,chair,chair,674,../stimuli/style-transfer-preprocessed-512\chair\chair4-truck2.png
googlenet,1,675,0,oven,chair,675,../stimuli/style-transfer-preprocessed-512\chair\chair5-bicycle1.png
googlenet,1,676,0,keyboard,chair,676,../stimuli/style-transfer-preprocessed-512\chair\chair5-bird1.png
googlenet,1,677,0,keyboard,chair,677,../stimuli/style-transfer-preprocessed-512\chair\chair5-boat3.png
googlenet,1,678,0,clock,chair,678,../stimuli/style-transfer-preprocessed-512\chair\chair5-bottle3.png
googlenet,1,679,0,cat,chair,679,../stimuli/style-transfer-preprocessed-512\chair\chair5-car1.png
googlenet,1,680,0,airplane,chair,680,../stimuli/style-transfer-preprocessed-512\chair\chair5-cat3.png
googlenet,1,681,0,chair,chair,681,../stimuli/style-transfer-preprocessed-512\chair\chair5-clock2.png
googlenet,1,682,0,bottle,chair,682,../stimuli/style-transfer-preprocessed-512\chair\chair5-keyboard2.png
googlenet,1,683,0,oven,chair,683,../stimuli/style-transfer-preprocessed-512\chair\chair5-knife3.png
googlenet,1,684,0,knife,chair,684,../stimuli/style-transfer-preprocessed-512\chair\chair5-oven2.png
googlenet,1,685,0,oven,chair,685,../stimuli/style-transfer-preprocessed-512\chair\chair5-truck3.png
googlenet,1,686,0,knife,chair,686,../stimuli/style-transfer-preprocessed-512\chair\chair6-bird2.png
googlenet,1,687,0,keyboard,chair,687,../stimuli/style-transfer-preprocessed-512\chair\chair6-dog1.png
googlenet,1,688,0,bottle,chair,688,../stimuli/style-transfer-preprocessed-512\chair\chair6-elephant2.png
googlenet,1,689,0,truck,chair,689,../stimuli/style-transfer-preprocessed-512\chair\chair6-truck2.png
googlenet,1,690,0,bottle,chair,690,../stimuli/style-transfer-preprocessed-512\chair\chair7-airplane1.png
googlenet,1,691,0,knife,chair,691,../stimuli/style-transfer-preprocessed-512\chair\chair7-bird1.png
googlenet,1,692,0,clock,chair,692,../stimuli/style-transfer-preprocessed-512\chair\chair7-boat3.png
googlenet,1,693,0,knife,chair,693,../stimuli/style-transfer-preprocessed-512\chair\chair7-bottle1.png
googlenet,1,694,0,knife,chair,694,../stimuli/style-transfer-preprocessed-512\chair\chair7-car2.png
googlenet,1,695,0,cat,chair,695,../stimuli/style-transfer-preprocessed-512\chair\chair7-cat1.png
googlenet,1,696,0,airplane,chair,696,../stimuli/style-transfer-preprocessed-512\chair\chair7-chair1.png
googlenet,1,697,0,boat,chair,697,../stimuli/style-transfer-preprocessed-512\chair\chair7-clock3.png
googlenet,1,698,0,knife,chair,698,../stimuli/style-transfer-preprocessed-512\chair\chair7-elephant1.png
googlenet,1,699,0,bottle,chair,699,../stimuli/style-transfer-preprocessed-512\chair\chair7-knife2.png
googlenet,1,700,0,knife,chair,700,../stimuli/style-transfer-preprocessed-512\chair\chair7-truck3.png
googlenet,1,701,0,knife,chair,701,../stimuli/style-transfer-preprocessed-512\chair\chair8-airplane1.png
googlenet,1,702,0,clock,chair,702,../stimuli/style-transfer-preprocessed-512\chair\chair8-bear1.png
googlenet,1,703,0,knife,chair,703,../stimuli/style-transfer-preprocessed-512\chair\chair8-bicycle3.png
googlenet,1,704,0,clock,chair,704,../stimuli/style-transfer-preprocessed-512\chair\chair8-boat1.png
googlenet,1,705,0,bottle,chair,705,../stimuli/style-transfer-preprocessed-512\chair\chair8-car1.png
googlenet,1,706,0,bottle,chair,706,../stimuli/style-transfer-preprocessed-512\chair\chair8-chair3.png
googlenet,1,707,0,chair,chair,707,../stimuli/style-transfer-preprocessed-512\chair\chair8-clock3.png
googlenet,1,708,0,cat,chair,708,../stimuli/style-transfer-preprocessed-512\chair\chair8-elephant1.png
googlenet,1,709,0,bottle,chair,709,../stimuli/style-transfer-preprocessed-512\chair\chair8-keyboard3.png
googlenet,1,710,0,knife,chair,710,../stimuli/style-transfer-preprocessed-512\chair\chair8-knife2.png
googlenet,1,711,0,bicycle,chair,711,../stimuli/style-transfer-preprocessed-512\chair\chair8-oven1.png
googlenet,1,712,0,clock,chair,712,../stimuli/style-transfer-preprocessed-512\chair\chair9-bear1.png
googlenet,1,713,0,clock,chair,713,../stimuli/style-transfer-preprocessed-512\chair\chair9-bicycle3.png
googlenet,1,714,0,keyboard,chair,714,../stimuli/style-transfer-preprocessed-512\chair\chair9-bird3.png
googlenet,1,715,0,bottle,chair,715,../stimuli/style-transfer-preprocessed-512\chair\chair9-boat2.png
googlenet,1,716,0,cat,chair,716,../stimuli/style-transfer-preprocessed-512\chair\chair9-bottle3.png
googlenet,1,717,0,clock,chair,717,../stimuli/style-transfer-preprocessed-512\chair\chair9-chair3.png
googlenet,1,718,0,knife,chair,718,../stimuli/style-transfer-preprocessed-512\chair\chair9-dog2.png
googlenet,1,719,0,elephant,chair,719,../stimuli/style-transfer-preprocessed-512\chair\chair9-elephant1.png
googlenet,1,720,0,elephant,chair,720,../stimuli/style-transfer-preprocessed-512\chair\chair9-keyboard2.png
googlenet,1,721,0,bottle,clock,721,../stimuli/style-transfer-preprocessed-512\clock\clock1-bear1.png
googlenet,1,722,0,knife,clock,722,../stimuli/style-transfer-preprocessed-512\clock\clock1-boat3.png
googlenet,1,723,0,elephant,clock,723,../stimuli/style-transfer-preprocessed-512\clock\clock1-car1.png
googlenet,1,724,0,knife,clock,724,../stimuli/style-transfer-preprocessed-512\clock\clock1-clock2.png
googlenet,1,725,0,bottle,clock,725,../stimuli/style-transfer-preprocessed-512\clock\clock1-dog2.png
googlenet,1,726,0,bottle,clock,726,../stimuli/style-transfer-preprocessed-512\clock\clock1-elephant2.png
googlenet,1,727,0,elephant,clock,727,../stimuli/style-transfer-preprocessed-512\clock\clock1-truck3.png
googlenet,1,728,0,bottle,clock,728,../stimuli/style-transfer-preprocessed-512\clock\clock10-airplane1.png
googlenet,1,729,0,oven,clock,729,../stimuli/style-transfer-preprocessed-512\clock\clock10-bird3.png
googlenet,1,730,0,keyboard,clock,730,../stimuli/style-transfer-preprocessed-512\clock\clock10-boat2.png
googlenet,1,731,0,bottle,clock,731,../stimuli/style-transfer-preprocessed-512\clock\clock10-bottle1.png
googlenet,1,732,0,keyboard,clock,732,../stimuli/style-transfer-preprocessed-512\clock\clock10-cat1.png
googlenet,1,733,0,knife,clock,733,../stimuli/style-transfer-preprocessed-512\clock\clock10-clock3.png
googlenet,1,734,0,oven,clock,734,../stimuli/style-transfer-preprocessed-512\clock\clock10-dog3.png
googlenet,1,735,0,bottle,clock,735,../stimuli/style-transfer-preprocessed-512\clock\clock10-knife3.png
googlenet,1,736,0,bottle,clock,736,../stimuli/style-transfer-preprocessed-512\clock\clock10-oven2.png
googlenet,1,737,0,clock,clock,737,../stimuli/style-transfer-preprocessed-512\clock\clock10-truck2.png
googlenet,1,738,0,knife,clock,738,../stimuli/style-transfer-preprocessed-512\clock\clock2-bear2.png
googlenet,1,739,0,knife,clock,739,../stimuli/style-transfer-preprocessed-512\clock\clock2-bicycle1.png
googlenet,1,740,0,knife,clock,740,../stimuli/style-transfer-preprocessed-512\clock\clock2-bottle3.png
googlenet,1,741,0,chair,clock,741,../stimuli/style-transfer-preprocessed-512\clock\clock2-clock3.png
googlenet,1,742,0,elephant,clock,742,../stimuli/style-transfer-preprocessed-512\clock\clock2-dog1.png
googlenet,1,743,0,knife,clock,743,../stimuli/style-transfer-preprocessed-512\clock\clock2-elephant2.png
googlenet,1,744,0,cat,clock,744,../stimuli/style-transfer-preprocessed-512\clock\clock2-knife1.png
googlenet,1,745,0,elephant,clock,745,../stimuli/style-transfer-preprocessed-512\clock\clock3-bear3.png
googlenet,1,746,0,clock,clock,746,../stimuli/style-transfer-preprocessed-512\clock\clock3-bicycle2.png
googlenet,1,747,0,elephant,clock,747,../stimuli/style-transfer-preprocessed-512\clock\clock3-bird1.png
googlenet,1,748,0,clock,clock,748,../stimuli/style-transfer-preprocessed-512\clock\clock3-car2.png
googlenet,1,749,0,bottle,clock,749,../stimuli/style-transfer-preprocessed-512\clock\clock3-cat1.png
googlenet,1,750,0,keyboard,clock,750,../stimuli/style-transfer-preprocessed-512\clock\clock3-dog2.png
googlenet,1,751,0,clock,clock,751,../stimuli/style-transfer-preprocessed-512\clock\clock3-elephant3.png
googlenet,1,752,0,clock,clock,752,../stimuli/style-transfer-preprocessed-512\clock\clock3-keyboard3.png
googlenet,1,753,0,chair,clock,753,../stimuli/style-transfer-preprocessed-512\clock\clock4-airplane1.png
googlenet,1,754,0,clock,clock,754,../stimuli/style-transfer-preprocessed-512\clock\clock4-bird3.png
googlenet,1,755,0,knife,clock,755,../stimuli/style-transfer-preprocessed-512\clock\clock4-boat3.png
googlenet,1,756,0,bottle,clock,756,../stimuli/style-transfer-preprocessed-512\clock\clock4-bottle3.png
googlenet,1,757,0,bottle,clock,757,../stimuli/style-transfer-preprocessed-512\clock\clock4-car2.png
googlenet,1,758,0,bottle,clock,758,../stimuli/style-transfer-preprocessed-512\clock\clock4-chair1.png
googlenet,1,759,0,cat,clock,759,../stimuli/style-transfer-preprocessed-512\clock\clock4-elephant2.png
googlenet,1,760,0,knife,clock,760,../stimuli/style-transfer-preprocessed-512\clock\clock4-knife1.png
googlenet,1,761,0,airplane,clock,761,../stimuli/style-transfer-preprocessed-512\clock\clock4-oven1.png
googlenet,1,762,0,oven,clock,762,../stimuli/style-transfer-preprocessed-512\clock\clock5-airplane1.png
googlenet,1,763,0,clock,clock,763,../stimuli/style-transfer-preprocessed-512\clock\clock5-bicycle1.png
googlenet,1,764,0,clock,clock,764,../stimuli/style-transfer-preprocessed-512\clock\clock5-chair3.png
googlenet,1,765,0,elephant,clock,765,../stimuli/style-transfer-preprocessed-512\clock\clock5-clock2.png
googlenet,1,766,0,keyboard,clock,766,../stimuli/style-transfer-preprocessed-512\clock\clock5-elephant2.png
googlenet,1,767,0,bottle,clock,767,../stimuli/style-transfer-preprocessed-512\clock\clock5-keyboard1.png
googlenet,1,768,0,bottle,clock,768,../stimuli/style-transfer-preprocessed-512\clock\clock5-oven1.png
googlenet,1,769,0,clock,clock,769,../stimuli/style-transfer-preprocessed-512\clock\clock6-bicycle1.png
googlenet,1,770,0,knife,clock,770,../stimuli/style-transfer-preprocessed-512\clock\clock6-bird3.png
googlenet,1,771,0,clock,clock,771,../stimuli/style-transfer-preprocessed-512\clock\clock6-bottle1.png
googlenet,1,772,0,knife,clock,772,../stimuli/style-transfer-preprocessed-512\clock\clock6-car2.png
googlenet,1,773,0,clock,clock,773,../stimuli/style-transfer-preprocessed-512\clock\clock6-chair3.png
googlenet,1,774,0,bottle,clock,774,../stimuli/style-transfer-preprocessed-512\clock\clock6-clock2.png
googlenet,1,775,0,knife,clock,775,../stimuli/style-transfer-preprocessed-512\clock\clock6-knife2.png
googlenet,1,776,0,knife,clock,776,../stimuli/style-transfer-preprocessed-512\clock\clock6-oven1.png
googlenet,1,777,0,knife,clock,777,../stimuli/style-transfer-preprocessed-512\clock\clock6-truck3.png
googlenet,1,778,0,bottle,clock,778,../stimuli/style-transfer-preprocessed-512\clock\clock7-bear2.png
googlenet,1,779,0,clock,clock,779,../stimuli/style-transfer-preprocessed-512\clock\clock7-bicycle1.png
googlenet,1,780,0,clock,clock,780,../stimuli/style-transfer-preprocessed-512\clock\clock7-boat3.png
googlenet,1,781,0,clock,clock,781,../stimuli/style-transfer-preprocessed-512\clock\clock7-bottle2.png
googlenet,1,782,0,bottle,clock,782,../stimuli/style-transfer-preprocessed-512\clock\clock7-car1.png
googlenet,1,783,0,airplane,clock,783,../stimuli/style-transfer-preprocessed-512\clock\clock7-cat2.png
googlenet,1,784,0,bottle,clock,784,../stimuli/style-transfer-preprocessed-512\clock\clock7-dog2.png
googlenet,1,785,0,airplane,clock,785,../stimuli/style-transfer-preprocessed-512\clock\clock7-keyboard2.png
googlenet,1,786,0,airplane,clock,786,../stimuli/style-transfer-preprocessed-512\clock\clock7-truck3.png
googlenet,1,787,0,airplane,clock,787,../stimuli/style-transfer-preprocessed-512\clock\clock8-airplane2.png
googlenet,1,788,0,cat,clock,788,../stimuli/style-transfer-preprocessed-512\clock\clock8-bear2.png
googlenet,1,789,0,cat,clock,789,../stimuli/style-transfer-preprocessed-512\clock\clock8-boat1.png
googlenet,1,790,0,clock,clock,790,../stimuli/style-transfer-preprocessed-512\clock\clock8-cat1.png
googlenet,1,791,0,bottle,clock,791,../stimuli/style-transfer-preprocessed-512\clock\clock8-chair2.png
googlenet,1,792,0,bottle,clock,792,../stimuli/style-transfer-preprocessed-512\clock\clock8-keyboard1.png
googlenet,1,793,0,bottle,clock,793,../stimuli/style-transfer-preprocessed-512\clock\clock8-knife1.png
googlenet,1,794,0,bottle,clock,794,../stimuli/style-transfer-preprocessed-512\clock\clock8-oven3.png
googlenet,1,795,0,cat,clock,795,../stimuli/style-transfer-preprocessed-512\clock\clock8-truck2.png
googlenet,1,796,0,knife,clock,796,../stimuli/style-transfer-preprocessed-512\clock\clock9-airplane1.png
googlenet,1,797,0,cat,clock,797,../stimuli/style-transfer-preprocessed-512\clock\clock9-bird2.png
googlenet,1,798,0,keyboard,clock,798,../stimuli/style-transfer-preprocessed-512\clock\clock9-cat1.png
googlenet,1,799,0,bottle,clock,799,../stimuli/style-transfer-preprocessed-512\clock\clock9-chair3.png
googlenet,1,800,0,elephant,clock,800,../stimuli/style-transfer-preprocessed-512\clock\clock9-keyboard2.png
googlenet,1,801,0,bottle,dog,801,../stimuli/style-transfer-preprocessed-512\dog\dog1-airplane3.png
googlenet,1,802,0,clock,dog,802,../stimuli/style-transfer-preprocessed-512\dog\dog1-bear1.png
googlenet,1,803,0,bottle,dog,803,../stimuli/style-transfer-preprocessed-512\dog\dog1-bird1.png
googlenet,1,804,0,knife,dog,804,../stimuli/style-transfer-preprocessed-512\dog\dog1-boat3.png
googlenet,1,805,0,bottle,dog,805,../stimuli/style-transfer-preprocessed-512\dog\dog1-car2.png
googlenet,1,806,0,bottle,dog,806,../stimuli/style-transfer-preprocessed-512\dog\dog1-cat3.png
googlenet,1,807,0,chair,dog,807,../stimuli/style-transfer-preprocessed-512\dog\dog1-chair1.png
googlenet,1,808,0,oven,dog,808,../stimuli/style-transfer-preprocessed-512\dog\dog1-dog2.png
googlenet,1,809,0,clock,dog,809,../stimuli/style-transfer-preprocessed-512\dog\dog1-knife3.png
googlenet,1,810,0,knife,dog,810,../stimuli/style-transfer-preprocessed-512\dog\dog10-airplane1.png
googlenet,1,811,0,elephant,dog,811,../stimuli/style-transfer-preprocessed-512\dog\dog10-bicycle1.png
googlenet,1,812,0,keyboard,dog,812,../stimuli/style-transfer-preprocessed-512\dog\dog10-bottle1.png
googlenet,1,813,0,bottle,dog,813,../stimuli/style-transfer-preprocessed-512\dog\dog10-car3.png
googlenet,1,814,0,bicycle,dog,814,../stimuli/style-transfer-preprocessed-512\dog\dog10-clock1.png
googlenet,1,815,0,bicycle,dog,815,../stimuli/style-transfer-preprocessed-512\dog\dog10-dog1.png
googlenet,1,816,0,bottle,dog,816,../stimuli/style-transfer-preprocessed-512\dog\dog10-elephant1.png
googlenet,1,817,0,clock,dog,817,../stimuli/style-transfer-preprocessed-512\dog\dog10-keyboard2.png
googlenet,1,818,0,bottle,dog,818,../stimuli/style-transfer-preprocessed-512\dog\dog10-oven2.png
googlenet,1,819,0,knife,dog,819,../stimuli/style-transfer-preprocessed-512\dog\dog10-truck2.png
googlenet,1,820,0,bottle,dog,820,../stimuli/style-transfer-preprocessed-512\dog\dog2-airplane2.png
googlenet,1,821,0,knife,dog,821,../stimuli/style-transfer-preprocessed-512\dog\dog2-bicycle2.png
googlenet,1,822,0,bear,dog,822,../stimuli/style-transfer-preprocessed-512\dog\dog2-bottle2.png
googlenet,1,823,0,bottle,dog,823,../stimuli/style-transfer-preprocessed-512\dog\dog2-cat1.png
googlenet,1,824,0,clock,dog,824,../stimuli/style-transfer-preprocessed-512\dog\dog2-dog3.png
googlenet,1,825,0,bottle,dog,825,../stimuli/style-transfer-preprocessed-512\dog\dog2-knife3.png
googlenet,1,826,0,clock,dog,826,../stimuli/style-transfer-preprocessed-512\dog\dog3-bear3.png
googlenet,1,827,0,oven,dog,827,../stimuli/style-transfer-preprocessed-512\dog\dog3-bird2.png
googlenet,1,828,0,keyboard,dog,828,../stimuli/style-transfer-preprocessed-512\dog\dog3-boat1.png
googlenet,1,829,0,elephant,dog,829,../stimuli/style-transfer-preprocessed-512\dog\dog3-clock1.png
googlenet,1,830,0,chair,dog,830,../stimuli/style-transfer-preprocessed-512\dog\dog3-dog1.png
googlenet,1,831,0,airplane,dog,831,../stimuli/style-transfer-preprocessed-512\dog\dog3-elephant2.png
googlenet,1,832,0,clock,dog,832,../stimuli/style-transfer-preprocessed-512\dog\dog3-keyboard1.png
googlenet,1,833,0,knife,dog,833,../stimuli/style-transfer-preprocessed-512\dog\dog3-knife3.png
googlenet,1,834,0,bottle,dog,834,../stimuli/style-transfer-preprocessed-512\dog\dog3-truck2.png
googlenet,1,835,0,oven,dog,835,../stimuli/style-transfer-preprocessed-512\dog\dog4-airplane3.png
googlenet,1,836,0,knife,dog,836,../stimuli/style-transfer-preprocessed-512\dog\dog4-bicycle1.png
googlenet,1,837,0,bicycle,dog,837,../stimuli/style-transfer-preprocessed-512\dog\dog4-bird1.png
googlenet,1,838,0,chair,dog,838,../stimuli/style-transfer-preprocessed-512\dog\dog4-bottle2.png
googlenet,1,839,0,airplane,dog,839,../stimuli/style-transfer-preprocessed-512\dog\dog4-cat3.png
googlenet,1,840,0,clock,dog,840,../stimuli/style-transfer-preprocessed-512\dog\dog4-chair1.png
googlenet,1,841,0,bottle,dog,841,../stimuli/style-transfer-preprocessed-512\dog\dog4-clock1.png
googlenet,1,842,0,oven,dog,842,../stimuli/style-transfer-preprocessed-512\dog\dog4-elephant2.png
googlenet,1,843,0,chair,dog,843,../stimuli/style-transfer-preprocessed-512\dog\dog4-keyboard2.png
googlenet,1,844,0,clock,dog,844,../stimuli/style-transfer-preprocessed-512\dog\dog4-oven1.png
googlenet,1,845,0,bottle,dog,845,../stimuli/style-transfer-preprocessed-512\dog\dog4-truck2.png
googlenet,1,846,0,knife,dog,846,../stimuli/style-transfer-preprocessed-512\dog\dog5-bear3.png
googlenet,1,847,0,bottle,dog,847,../stimuli/style-transfer-preprocessed-512\dog\dog5-boat3.png
googlenet,1,848,0,knife,dog,848,../stimuli/style-transfer-preprocessed-512\dog\dog5-car3.png
googlenet,1,849,0,knife,dog,849,../stimuli/style-transfer-preprocessed-512\dog\dog5-elephant1.png
googlenet,1,850,0,keyboard,dog,850,../stimuli/style-transfer-preprocessed-512\dog\dog5-knife2.png
googlenet,1,851,0,bottle,dog,851,../stimuli/style-transfer-preprocessed-512\dog\dog5-oven1.png
googlenet,1,852,0,bottle,dog,852,../stimuli/style-transfer-preprocessed-512\dog\dog5-truck2.png
googlenet,1,853,0,bottle,dog,853,../stimuli/style-transfer-preprocessed-512\dog\dog6-bicycle1.png
googlenet,1,854,0,oven,dog,854,../stimuli/style-transfer-preprocessed-512\dog\dog6-bird1.png
googlenet,1,855,0,bottle,dog,855,../stimuli/style-transfer-preprocessed-512\dog\dog6-cat1.png
googlenet,1,856,0,bicycle,dog,856,../stimuli/style-transfer-preprocessed-512\dog\dog6-clock1.png
googlenet,1,857,0,chair,dog,857,../stimuli/style-transfer-preprocessed-512\dog\dog6-elephant2.png
googlenet,1,858,0,clock,dog,858,../stimuli/style-transfer-preprocessed-512\dog\dog6-truck2.png
googlenet,1,859,0,bottle,dog,859,../stimuli/style-transfer-preprocessed-512\dog\dog7-bird3.png
googlenet,1,860,0,knife,dog,860,../stimuli/style-transfer-preprocessed-512\dog\dog7-car2.png
googlenet,1,861,0,knife,dog,861,../stimuli/style-transfer-preprocessed-512\dog\dog7-chair2.png
googlenet,1,862,0,oven,dog,862,../stimuli/style-transfer-preprocessed-512\dog\dog7-keyboard3.png
googlenet,1,863,0,bottle,dog,863,../stimuli/style-transfer-preprocessed-512\dog\dog7-knife3.png
googlenet,1,864,0,knife,dog,864,../stimuli/style-transfer-preprocessed-512\dog\dog7-oven2.png
googlenet,1,865,0,clock,dog,865,../stimuli/style-transfer-preprocessed-512\dog\dog8-bear3.png
googlenet,1,866,0,clock,dog,866,../stimuli/style-transfer-preprocessed-512\dog\dog8-boat3.png
googlenet,1,867,0,oven,dog,867,../stimuli/style-transfer-preprocessed-512\dog\dog8-bottle2.png
googlenet,1,868,0,knife,dog,868,../stimuli/style-transfer-preprocessed-512\dog\dog8-chair3.png
googlenet,1,869,0,clock,dog,869,../stimuli/style-transfer-preprocessed-512\dog\dog8-clock2.png
googlenet,1,870,0,dog,dog,870,../stimuli/style-transfer-preprocessed-512\dog\dog8-dog3.png
googlenet,1,871,0,clock,dog,871,../stimuli/style-transfer-preprocessed-512\dog\dog8-keyboard3.png
googlenet,1,872,0,clock,dog,872,../stimuli/style-transfer-preprocessed-512\dog\dog8-oven3.png
googlenet,1,873,0,clock,dog,873,../stimuli/style-transfer-preprocessed-512\dog\dog9-airplane3.png
googlenet,1,874,0,chair,dog,874,../stimuli/style-transfer-preprocessed-512\dog\dog9-bear3.png
googlenet,1,875,0,knife,dog,875,../stimuli/style-transfer-preprocessed-512\dog\dog9-bicycle3.png
googlenet,1,876,0,elephant,dog,876,../stimuli/style-transfer-preprocessed-512\dog\dog9-boat1.png
googlenet,1,877,0,clock,dog,877,../stimuli/style-transfer-preprocessed-512\dog\dog9-bottle1.png
googlenet,1,878,0,bottle,dog,878,../stimuli/style-transfer-preprocessed-512\dog\dog9-car1.png
googlenet,1,879,0,bottle,dog,879,../stimuli/style-transfer-preprocessed-512\dog\dog9-cat1.png
googlenet,1,880,0,knife,dog,880,../stimuli/style-transfer-preprocessed-512\dog\dog9-chair2.png
googlenet,1,881,0,airplane,elephant,881,../stimuli/style-transfer-preprocessed-512\elephant\elephant1-airplane2.png
googlenet,1,882,0,oven,elephant,882,../stimuli/style-transfer-preprocessed-512\elephant\elephant1-bear2.png
googlenet,1,883,0,cat,elephant,883,../stimuli/style-transfer-preprocessed-512\elephant\elephant1-boat2.png
googlenet,1,884,0,bottle,elephant,884,../stimuli/style-transfer-preprocessed-512\elephant\elephant1-bottle1.png
googlenet,1,885,0,clock,elephant,885,../stimuli/style-transfer-preprocessed-512\elephant\elephant1-car3.png
googlenet,1,886,0,knife,elephant,886,../stimuli/style-transfer-preprocessed-512\elephant\elephant1-chair1.png
googlenet,1,887,0,cat,elephant,887,../stimuli/style-transfer-preprocessed-512\elephant\elephant1-dog2.png
googlenet,1,888,0,knife,elephant,888,../stimuli/style-transfer-preprocessed-512\elephant\elephant1-keyboard3.png
googlenet,1,889,0,bottle,elephant,889,../stimuli/style-transfer-preprocessed-512\elephant\elephant1-oven2.png
googlenet,1,890,0,chair,elephant,890,../stimuli/style-transfer-preprocessed-512\elephant\elephant10-bear1.png
googlenet,1,891,0,bottle,elephant,891,../stimuli/style-transfer-preprocessed-512\elephant\elephant10-elephant1.png
googlenet,1,892,0,elephant,elephant,892,../stimuli/style-transfer-preprocessed-512\elephant\elephant10-keyboard1.png
googlenet,1,893,0,bottle,elephant,893,../stimuli/style-transfer-preprocessed-512\elephant\elephant10-knife3.png
googlenet,1,894,0,dog,elephant,894,../stimuli/style-transfer-preprocessed-512\elephant\elephant2-airplane3.png
googlenet,1,895,0,cat,elephant,895,../stimuli/style-transfer-preprocessed-512\elephant\elephant2-bear3.png
googlenet,1,896,0,bottle,elephant,896,../stimuli/style-transfer-preprocessed-512\elephant\elephant2-bird1.png
googlenet,1,897,0,bottle,elephant,897,../stimuli/style-transfer-preprocessed-512\elephant\elephant2-boat1.png
googlenet,1,898,0,bottle,elephant,898,../stimuli/style-transfer-preprocessed-512\elephant\elephant2-bottle3.png
googlenet,1,899,0,clock,elephant,899,../stimuli/style-transfer-preprocessed-512\elephant\elephant2-cat1.png
googlenet,1,900,0,knife,elephant,900,../stimuli/style-transfer-preprocessed-512\elephant\elephant2-clock1.png
googlenet,1,901,0,knife,elephant,901,../stimuli/style-transfer-preprocessed-512\elephant\elephant2-elephant3.png
googlenet,1,902,0,knife,elephant,902,../stimuli/style-transfer-preprocessed-512\elephant\elephant2-keyboard3.png
googlenet,1,903,0,knife,elephant,903,../stimuli/style-transfer-preprocessed-512\elephant\elephant2-truck2.png
googlenet,1,904,0,knife,elephant,904,../stimuli/style-transfer-preprocessed-512\elephant\elephant3-cat2.png
googlenet,1,905,0,elephant,elephant,905,../stimuli/style-transfer-preprocessed-512\elephant\elephant3-chair1.png
googlenet,1,906,0,clock,elephant,906,../stimuli/style-transfer-preprocessed-512\elephant\elephant3-keyboard2.png
googlenet,1,907,0,chair,elephant,907,../stimuli/style-transfer-preprocessed-512\elephant\elephant3-knife1.png
googlenet,1,908,0,oven,elephant,908,../stimuli/style-transfer-preprocessed-512\elephant\elephant3-oven1.png
googlenet,1,909,0,bottle,elephant,909,../stimuli/style-transfer-preprocessed-512\elephant\elephant3-truck1.png
googlenet,1,910,0,clock,elephant,910,../stimuli/style-transfer-preprocessed-512\elephant\elephant4-bicycle2.png
googlenet,1,911,0,clock,elephant,911,../stimuli/style-transfer-preprocessed-512\elephant\elephant4-bird1.png
googlenet,1,912,0,cat,elephant,912,../stimuli/style-transfer-preprocessed-512\elephant\elephant4-boat3.png
googlenet,1,913,0,chair,elephant,913,../stimuli/style-transfer-preprocessed-512\elephant\elephant4-car3.png
googlenet,1,914,0,keyboard,elephant,914,../stimuli/style-transfer-preprocessed-512\elephant\elephant4-chair3.png
googlenet,1,915,0,bottle,elephant,915,../stimuli/style-transfer-preprocessed-512\elephant\elephant4-clock3.png
googlenet,1,916,0,knife,elephant,916,../stimuli/style-transfer-preprocessed-512\elephant\elephant4-oven1.png
googlenet,1,917,0,knife,elephant,917,../stimuli/style-transfer-preprocessed-512\elephant\elephant5-bear2.png
googlenet,1,918,0,bottle,elephant,918,../stimuli/style-transfer-preprocessed-512\elephant\elephant5-bicycle3.png
googlenet,1,919,0,clock,elephant,919,../stimuli/style-transfer-preprocessed-512\elephant\elephant5-bottle2.png
googlenet,1,920,0,chair,elephant,920,../stimuli/style-transfer-preprocessed-512\elephant\elephant5-car1.png
googlenet,1,921,0,clock,elephant,921,../stimuli/style-transfer-preprocessed-512\elephant\elephant5-chair3.png
googlenet,1,922,0,bottle,elephant,922,../stimuli/style-transfer-preprocessed-512\elephant\elephant5-elephant1.png
googlenet,1,923,0,cat,elephant,923,../stimuli/style-transfer-preprocessed-512\elephant\elephant5-truck1.png
googlenet,1,924,0,chair,elephant,924,../stimuli/style-transfer-preprocessed-512\elephant\elephant6-bicycle1.png
googlenet,1,925,0,oven,elephant,925,../stimuli/style-transfer-preprocessed-512\elephant\elephant6-bird1.png
googlenet,1,926,0,clock,elephant,926,../stimuli/style-transfer-preprocessed-512\elephant\elephant6-bottle2.png
googlenet,1,927,0,elephant,elephant,927,../stimuli/style-transfer-preprocessed-512\elephant\elephant6-car3.png
googlenet,1,928,0,clock,elephant,928,../stimuli/style-transfer-preprocessed-512\elephant\elephant6-cat2.png
googlenet,1,929,0,clock,elephant,929,../stimuli/style-transfer-preprocessed-512\elephant\elephant6-dog2.png
googlenet,1,930,0,dog,elephant,930,../stimuli/style-transfer-preprocessed-512\elephant\elephant6-knife2.png
googlenet,1,931,0,truck,elephant,931,../stimuli/style-transfer-preprocessed-512\elephant\elephant6-oven1.png
googlenet,1,932,0,clock,elephant,932,../stimuli/style-transfer-preprocessed-512\elephant\elephant6-truck3.png
googlenet,1,933,0,clock,elephant,933,../stimuli/style-transfer-preprocessed-512\elephant\elephant7-airplane3.png
googlenet,1,934,0,clock,elephant,934,../stimuli/style-transfer-preprocessed-512\elephant\elephant7-bear3.png
googlenet,1,935,0,clock,elephant,935,../stimuli/style-transfer-preprocessed-512\elephant\elephant7-bird1.png
googlenet,1,936,0,clock,elephant,936,../stimuli/style-transfer-preprocessed-512\elephant\elephant7-bottle3.png
googlenet,1,937,0,clock,elephant,937,../stimuli/style-transfer-preprocessed-512\elephant\elephant7-car3.png
googlenet,1,938,0,boat,elephant,938,../stimuli/style-transfer-preprocessed-512\elephant\elephant7-cat1.png
googlenet,1,939,0,oven,elephant,939,../stimuli/style-transfer-preprocessed-512\elephant\elephant7-clock2.png
googlenet,1,940,0,bottle,elephant,940,../stimuli/style-transfer-preprocessed-512\elephant\elephant7-dog1.png
googlenet,1,941,0,cat,elephant,941,../stimuli/style-transfer-preprocessed-512\elephant\elephant7-keyboard3.png
googlenet,1,942,0,oven,elephant,942,../stimuli/style-transfer-preprocessed-512\elephant\elephant7-knife2.png
googlenet,1,943,0,chair,elephant,943,../stimuli/style-transfer-preprocessed-512\elephant\elephant8-airplane3.png
googlenet,1,944,0,bottle,elephant,944,../stimuli/style-transfer-preprocessed-512\elephant\elephant8-bicycle3.png
googlenet,1,945,0,bottle,elephant,945,../stimuli/style-transfer-preprocessed-512\elephant\elephant8-bird2.png
googlenet,1,946,0,bottle,elephant,946,../stimuli/style-transfer-preprocessed-512\elephant\elephant8-boat2.png
googlenet,1,947,0,knife,elephant,947,../stimuli/style-transfer-preprocessed-512\elephant\elephant8-cat1.png
googlenet,1,948,0,knife,elephant,948,../stimuli/style-transfer-preprocessed-512\elephant\elephant8-clock2.png
googlenet,1,949,0,clock,elephant,949,../stimuli/style-transfer-preprocessed-512\elephant\elephant8-dog1.png
googlenet,1,950,0,knife,elephant,950,../stimuli/style-transfer-preprocessed-512\elephant\elephant8-elephant1.png
googlenet,1,951,0,bottle,elephant,951,../stimuli/style-transfer-preprocessed-512\elephant\elephant8-knife2.png
googlenet,1,952,0,clock,elephant,952,../stimuli/style-transfer-preprocessed-512\elephant\elephant8-oven3.png
googlenet,1,953,0,bottle,elephant,953,../stimuli/style-transfer-preprocessed-512\elephant\elephant8-truck3.png
googlenet,1,954,0,bottle,elephant,954,../stimuli/style-transfer-preprocessed-512\elephant\elephant9-airplane2.png
googlenet,1,955,0,clock,elephant,955,../stimuli/style-transfer-preprocessed-512\elephant\elephant9-bicycle2.png
googlenet,1,956,0,clock,elephant,956,../stimuli/style-transfer-preprocessed-512\elephant\elephant9-boat3.png
googlenet,1,957,0,bottle,elephant,957,../stimuli/style-transfer-preprocessed-512\elephant\elephant9-chair2.png
googlenet,1,958,0,bottle,elephant,958,../stimuli/style-transfer-preprocessed-512\elephant\elephant9-clock3.png
googlenet,1,959,0,clock,elephant,959,../stimuli/style-transfer-preprocessed-512\elephant\elephant9-dog3.png
googlenet,1,960,0,cat,elephant,960,../stimuli/style-transfer-preprocessed-512\elephant\elephant9-elephant3.png
googlenet,1,961,0,clock,keyboard,961,../stimuli/style-transfer-preprocessed-512\keyboard\keyboard1-airplane2.png
googlenet,1,962,0,oven,keyboard,962,../stimuli/style-transfer-preprocessed-512\keyboard\keyboard1-bear2.png
googlenet,1,963,0,bottle,keyboard,963,../stimuli/style-transfer-preprocessed-512\keyboard\keyboard1-bird2.png
googlenet,1,964,0,clock,keyboard,964,../stimuli/style-transfer-preprocessed-512\keyboard\keyboard1-car3.png
googlenet,1,965,0,knife,keyboard,965,../stimuli/style-transfer-preprocessed-512\keyboard\keyboard1-chair2.png
googlenet,1,966,0,knife,keyboard,966,../stimuli/style-transfer-preprocessed-512\keyboard\keyboard1-clock1.png
googlenet,1,967,0,bottle,keyboard,967,../stimuli/style-transfer-preprocessed-512\keyboard\keyboard1-dog3.png
googlenet,1,968,0,knife,keyboard,968,../stimuli/style-transfer-preprocessed-512\keyboard\keyboard1-elephant3.png
googlenet,1,969,0,clock,keyboard,969,../stimuli/style-transfer-preprocessed-512\keyboard\keyboard10-airplane3.png
googlenet,1,970,0,bottle,keyboard,970,../stimuli/style-transfer-preprocessed-512\keyboard\keyboard10-boat2.png
googlenet,1,971,0,clock,keyboard,971,../stimuli/style-transfer-preprocessed-512\keyboard\keyboard10-car1.png
googlenet,1,972,0,clock,keyboard,972,../stimuli/style-transfer-preprocessed-512\keyboard\keyboard10-keyboard1.png
googlenet,1,973,0,knife,keyboard,973,../stimuli/style-transfer-preprocessed-512\keyboard\keyboard10-oven3.png
